participantID,condition,blocks,blockType,trials,probabilitiesMarketOne_1,probabilitiesMarketOne_2,probabilitiesMarketTwo_1,probabilitiesMarketTwo_2,rewards_1,rewards_2,gem_presented,market_presented,chooseLeft,stateChosen,outcomeState,outcome,RT,black_rl_p,black_sofa_p,chosen_rl_p,chosen_sofa_p,pick_black,rt_log_trans,white_rl_p,white_sofa_p,missed_response,structureAwareness,evidence_consistency,consistent_choice,same_gem,doorRepeat,sideRepeat
1,1,1,1,1,0.2,0.8,0.2,0.8,-1,0,1,1,9,0,9,9,9,0.2,0.8,NaN,NaN,NaN,NaN,0.8,0.2,1,0,0,0,0,0,0
1,1,1,1,2,0.2,0.8,0.2,0.8,1,0,1,1,1,2,2,0,1.235002995,0.2,0.8,0.8,0.2,0,-0.211073395,0.8,0.2,0,0,0,0,1,0,0
1,1,1,1,3,0.2,0.8,0.2,0.8,1,0,1,1,0,1,1,1,1.757672071,0.2,0.8,0.2,0.8,1,-0.563990247,0.8,0.2,0,0,1,1,1,0,0
1,1,1,1,4,0.2,0.8,0.2,0.8,1,0,1,1,1,1,2,0,1.23885417,0.2,0.8,0.2,0.8,1,-0.214186896,0.8,0.2,0,0,1,1,1,1,0
1,1,1,1,5,0.2,0.8,0.2,0.8,-1,0,2,1,0,1,2,0,3.509742022,0.2,0.8,0.2,0.8,1,-1.255542537,0.8,0.2,0,0,0,0,0,1,0
1,1,1,1,6,0.2,0.8,0.2,0.8,1,0,1,1,1,2,1,1,1.877753019,0.2,0.8,0.8,0.2,0,-0.63007586,0.8,0.2,0,0,0,0,0,0,0
1,1,1,1,7,0.2,0.8,0.2,0.8,1,0,2,1,1,2,1,1,1.355410814,0.2,0.8,0.8,0.2,0,-0.304104592,0.8,0.2,0,0,0,0,0,1,1
1,1,1,1,8,0.2,0.8,0.2,0.8,-1,0,1,1,0,1,2,0,1.519417048,0.2,0.8,0.2,0.8,1,-0.41832674,0.8,0.2,0,0,0,0,0,0,0
1,1,1,1,9,0.2,0.8,0.2,0.8,1,0,2,1,1,2,2,0,1.165743113,0.2,0.8,0.8,0.2,0,-0.153358749,0.8,0.2,0,0,0,0,0,0,0
1,1,1,1,10,0.2,0.8,0.2,0.8,-1,0,1,1,0,2,1,-1,1.601225138,0.2,0.8,0.8,0.2,0,-0.470769047,0.8,0.2,0,0,1,1,0,1,0
1,1,1,1,11,0.2,0.8,0.2,0.8,1,0,1,1,1,2,1,1,4.739987135,0.2,0.8,0.8,0.2,0,-1.556034422,0.8,0.2,0,0,0,0,1,1,0
1,1,1,1,12,0.2,0.8,0.2,0.8,1,0,2,1,0,1,2,0,2.730995893,0.2,0.8,0.2,0.8,1,-1.004666339,0.8,0.2,0,0,0,1,0,0,0
1,1,1,1,13,0.2,0.8,0.2,0.8,-1,0,1,1,1,1,1,-1,3.786587954,0.2,0.8,0.2,0.8,1,-1.331465337,0.8,0.2,0,0,0,0,0,1,0
1,1,1,1,14,0.2,0.8,0.2,0.8,-1,0,1,1,1,2,2,0,2.919603109,0.2,0.8,0.8,0.2,0,-1.071447686,0.8,0.2,0,0,1,1,1,0,1
1,1,1,1,15,0.2,0.8,0.2,0.8,1,0,2,1,0,2,2,0,2.658652067,0.2,0.8,0.8,0.2,0,-0.977819253,0.8,0.2,0,0,1,0,0,1,0
1,1,1,1,16,0.2,0.8,0.2,0.8,-1,0,2,1,1,2,1,-1,2.279177189,0.2,0.8,0.8,0.2,0,-0.823814496,0.8,0.2,0,0,1,1,1,1,0
1,1,1,1,17,0.2,0.8,0.2,0.8,1,0,2,1,0,2,2,0,2.167240143,0.2,0.8,0.8,0.2,0,-0.773454535,0.8,0.2,0,0,0,0,1,1,0
1,1,1,1,18,0.2,0.8,0.2,0.8,1,0,1,1,1,1,1,1,1.89120388,0.2,0.8,0.2,0.8,1,-0.6372136,0.8,0.2,0,0,1,1,0,0,0
1,1,1,1,19,0.2,0.8,0.2,0.8,1,0,1,1,1,1,2,0,1.284538031,0.2,0.8,0.2,0.8,1,-0.250399144,0.8,0.2,0,0,1,1,1,1,1
1,1,1,1,20,0.2,0.8,0.2,0.8,1,0,1,1,1,2,2,0,2.575191021,0.2,0.8,0.8,0.2,0,-0.945923714,0.8,0.2,0,0,0,0,1,0,1
1,1,1,1,21,0.2,0.8,0.2,0.8,-1,0,1,1,1,2,1,-1,2.33266592,0.2,0.8,0.8,0.2,0,-0.847011785,0.8,0.2,0,0,1,1,1,1,1
1,1,1,1,22,0.2,0.8,0.2,0.8,1,0,2,1,0,1,2,0,3.099028111,0.2,0.8,0.2,0.8,1,-1.13108855,0.8,0.2,0,0,0,1,0,0,0
1,1,1,1,23,0.2,0.8,0.2,0.8,-1,0,2,1,0,1,2,0,2.519411802,0.2,0.8,0.2,0.8,1,-0.924025462,0.8,0.2,0,0,0,0,1,1,1
1,1,1,1,24,0.2,0.8,0.2,0.8,-1,0,2,1,1,2,1,-1,2.118189812,0.2,0.8,0.8,0.2,0,-0.750561862,0.8,0.2,0,0,0,1,1,0,0
1,1,1,1,25,0.2,0.8,0.2,0.8,1,0,1,1,0,1,2,0,3.744890928,0.2,0.8,0.2,0.8,1,-1.320392492,0.8,0.2,0,0,0,1,0,0,0
1,1,1,1,26,0.2,0.8,0.2,0.8,1,0,1,1,0,2,1,1,1.538038015,0.2,0.8,0.8,0.2,0,-0.430507588,0.8,0.2,0,0,0,0,1,0,1
1,1,1,1,27,0.2,0.8,0.2,0.8,1,0,1,1,1,2,1,1,1.144601822,0.2,0.8,0.8,0.2,0,-0.135056823,0.8,0.2,0,0,0,0,1,1,0
1,1,1,1,28,0.2,0.8,0.2,0.8,1,0,2,1,1,2,1,1,1.387175083,0.2,0.8,0.8,0.2,0,-0.327269365,0.8,0.2,0,0,0,0,0,1,1
1,1,1,1,29,0.2,0.8,0.2,0.8,1,0,1,1,1,2,1,1,1.383940935,0.2,0.8,0.8,0.2,0,-0.324935179,0.8,0.2,0,0,0,0,0,1,1
1,1,1,1,30,0.2,0.8,0.2,0.8,-1,0,2,1,1,1,2,0,2.191797972,0.2,0.8,0.2,0.8,1,-0.784722199,0.8,0.2,0,0,0,0,0,0,1
1,1,1,1,31,0.2,0.8,0.2,0.8,-1,0,2,1,0,1,2,0,1.055858135,0.2,0.8,0.2,0.8,1,-0.054353835,0.8,0.2,0,0,0,0,1,1,0
1,1,1,1,32,0.2,0.8,0.2,0.8,1,0,1,1,1,2,1,1,1.305096865,0.2,0.8,0.8,0.2,0,-0.266277264,0.8,0.2,0,0,0,0,0,0,0
1,1,1,1,33,0.2,0.8,0.2,0.8,-1,0,2,1,1,2,1,-1,2.356996059,0.2,0.8,0.8,0.2,0,-0.857387952,0.8,0.2,0,0,0,1,0,1,1
1,1,1,1,34,0.2,0.8,0.2,0.8,1,0,2,1,1,2,1,1,0.831219912,0.2,0.8,0.8,0.2,0,0.184860884,0.8,0.2,0,0,0,0,1,1,1
1,1,1,1,35,0.2,0.8,0.2,0.8,-1,0,2,1,0,2,1,-1,3.559377193,0.2,0.8,0.8,0.2,0,-1.269585584,0.8,0.2,0,0,0,1,1,1,0
1,1,1,1,36,0.2,0.8,0.2,0.8,1,0,2,1,0,2,1,1,0.803231955,0.2,0.8,0.8,0.2,0,0.219111747,0.8,0.2,0,0,0,0,1,1,1
1,1,1,1,37,0.2,0.8,0.2,0.8,1,0,1,1,1,2,1,1,1.243915081,0.2,0.8,0.8,0.2,0,-0.218263729,0.8,0.2,0,0,0,0,0,1,0
1,1,1,1,38,0.2,0.8,0.2,0.8,1,0,2,1,0,2,2,0,1.263789177,0.2,0.8,0.8,0.2,0,-0.234114491,0.8,0.2,0,0,0,0,0,1,0
1,1,1,1,39,0.8,0.2,0.2,0.8,1,0,2,1,1,1,1,1,1.298789978,0.8,0.2,0.8,0.2,1,-0.261433045,0.2,0.8,0,0,1,1,1,0,0
1,1,1,1,40,0.8,0.2,0.2,0.8,1,0,2,1,0,1,1,1,2.045119047,0.8,0.2,0.8,0.2,1,-0.715456002,0.2,0.8,0,0,1,1,1,1,0
1,1,1,1,41,0.8,0.2,0.2,0.8,1,0,2,1,1,1,1,1,1.249805927,0.8,0.2,0.8,0.2,1,-0.222988281,0.2,0.8,0,0,1,1,1,1,0
1,1,1,1,42,0.8,0.2,0.2,0.8,-1,0,2,1,1,2,2,0,2.406473875,0.8,0.2,0.2,0.8,0,-0.878162554,0.2,0.8,0,0,1,1,1,0,1
1,1,1,1,43,0.8,0.2,0.2,0.8,-1,0,1,1,1,2,1,-1,3.402635813,0.8,0.2,0.2,0.8,0,-1.22455037,0.2,0.8,0,0,1,1,0,1,1
1,1,1,1,44,0.8,0.2,0.2,0.8,1,0,1,1,0,2,2,0,1.226253033,0.8,0.2,0.2,0.8,0,-0.203963205,0.2,0.8,0,0,0,0,1,1,0
1,1,1,1,45,0.8,0.2,0.2,0.8,1,0,2,1,1,1,1,1,2.955838203,0.8,0.2,0.8,0.2,1,-1.083782267,0.2,0.8,0,0,1,1,0,0,0
1,1,1,1,46,0.2,0.8,0.2,0.8,-1,0,2,1,0,2,1,-1,2.286064863,0.2,0.8,0.8,0.2,0,-0.826831939,0.8,0.2,0,0,1,1,1,0,0
1,1,1,1,47,0.2,0.8,0.2,0.8,1,0,1,1,1,2,2,0,1.907307863,0.2,0.8,0.8,0.2,0,-0.645692752,0.8,0.2,0,0,0,0,0,1,0
1,1,1,1,48,0.2,0.8,0.2,0.8,1,0,2,1,1,2,1,1,1.509769201,0.2,0.8,0.8,0.2,0,-0.411956792,0.8,0.2,0,0,1,0,0,1,1
1,1,1,1,49,0.2,0.8,0.2,0.8,1,0,1,1,1,1,2,0,1.620145082,0.2,0.8,0.2,0.8,1,-0.482515702,0.8,0.2,0,0,0,1,0,0,1
1,1,1,1,50,0.2,0.8,0.2,0.8,1,0,2,1,1,2,1,1,0.80875206,0.2,0.8,0.8,0.2,0,0.212262886,0.8,0.2,0,0,0,0,0,0,1
1,1,1,1,51,0.2,0.8,0.2,0.8,-1,0,1,1,1,1,2,0,1.950708151,0.2,0.8,0.2,0.8,1,-0.668192461,0.8,0.2,0,0,0,0,0,0,1
1,1,1,1,52,0.2,0.8,0.2,0.8,1,0,1,1,1,2,2,0,2.255545855,0.2,0.8,0.8,0.2,0,-0.813392008,0.8,0.2,0,0,0,0,1,0,1
1,1,1,1,53,0.2,0.8,0.2,0.8,-1,0,1,1,0,2,1,-1,1.63409996,0.2,0.8,0.8,0.2,0,-0.49109217,0.8,0.2,0,0,1,1,1,1,0
1,1,1,1,54,0.2,0.8,0.2,0.8,1,0,2,1,1,2,2,0,4.196386099,0.2,0.8,0.8,0.2,0,-1.434223702,0.8,0.2,0,0,0,0,0,1,0
1,1,1,1,55,0.2,0.8,0.2,0.8,1,0,2,1,1,1,1,1,1.27823019,0.2,0.8,0.2,0.8,1,-0.245476457,0.8,0.2,0,0,1,1,1,0,1
1,1,1,1,56,0.2,0.8,0.2,0.8,-1,0,2,1,0,2,1,-1,3.067073107,0.2,0.8,0.8,0.2,0,-1.120723721,0.8,0.2,0,0,1,1,1,0,0
1,1,1,1,57,0.2,0.8,0.2,0.8,-1,0,1,1,0,1,2,0,1.655868053,0.2,0.8,0.2,0.8,1,-0.504325375,0.8,0.2,0,0,0,0,0,0,1
1,1,1,1,58,0.2,0.8,0.2,0.8,-1,0,2,1,1,1,1,-1,1.351654053,0.2,0.8,0.2,0.8,1,-0.301329067,0.8,0.2,0,0,0,0,0,1,0
1,1,1,1,59,0.2,0.8,0.2,0.8,-1,0,1,1,0,2,1,-1,1.855095863,0.2,0.8,0.8,0.2,0,-0.617936373,0.8,0.2,0,0,1,1,0,0,0
1,1,1,1,60,0.2,0.8,0.2,0.8,1,0,1,1,0,2,1,1,1.353214979,0.2,0.8,0.8,0.2,0,-0.302483227,0.8,0.2,0,0,0,0,1,1,1
1,1,2,2,1,0.8,0.2,0.2,0.8,-1,0,3,2,1,1,2,0,2.198300123,0.2,0.8,0.2,0.8,1,-0.78768439,0.8,0.2,0,0,0,0,0,0,0
1,1,2,2,2,0.8,0.2,0.2,0.8,-1,0,3,2,0,1,2,0,1.448723793,0.2,0.8,0.2,0.8,1,-0.370683026,0.8,0.2,0,0,0,0,1,1,0
1,1,2,2,3,0.8,0.2,0.2,0.8,-1,0,4,1,1,1,1,-1,2.197434902,0.8,0.2,0.8,0.2,1,-0.787290727,0.2,0.8,0,0,0,0,0,1,0
1,1,2,2,4,0.8,0.2,0.2,0.8,1,0,3,2,1,2,1,1,1.747882128,0.2,0.8,0.8,0.2,0,-0.558404842,0.8,0.2,0,0,1,0,0,0,1
1,1,2,2,5,0.8,0.2,0.2,0.8,1,0,3,2,1,2,1,1,1.402575016,0.2,0.8,0.8,0.2,0,-0.338309844,0.8,0.2,0,0,0,0,1,1,1
1,1,2,2,6,0.8,0.2,0.2,0.8,1,0,4,1,0,1,1,1,3.538511992,0.8,0.2,0.8,0.2,1,-1.263706297,0.2,0.8,0,0,0,1,0,0,0
1,1,2,2,7,0.8,0.2,0.2,0.8,-1,0,3,2,0,1,2,0,1.676323175,0.2,0.8,0.2,0.8,1,-0.516602809,0.8,0.2,0,0,1,0,0,1,1
1,1,2,2,8,0.8,0.2,0.2,0.8,1,0,4,1,0,1,1,1,1.966249943,0.8,0.2,0.8,0.2,1,-0.676128146,0.2,0.8,0,0,0,1,0,1,1
1,1,2,2,9,0.8,0.2,0.2,0.8,-1,0,4,1,0,2,1,-1,1.979489088,0.8,0.2,0.2,0.8,0,-0.682838775,0.2,0.8,0,0,1,1,1,0,1
1,1,2,2,10,0.8,0.2,0.2,0.8,-1,0,3,2,0,1,2,0,3.450648069,0.2,0.8,0.2,0.8,1,-1.23856206,0.8,0.2,0,0,0,0,0,0,1
1,1,2,2,11,0.8,0.2,0.2,0.8,-1,0,3,2,0,1,2,0,1.59246707,0.2,0.8,0.2,0.8,1,-0.46528443,0.8,0.2,0,0,0,0,1,1,1
1,1,2,2,12,0.8,0.2,0.2,0.8,-1,0,3,2,0,1,2,0,2.009858131,0.2,0.8,0.2,0.8,1,-0.698064138,0.8,0.2,0,0,0,0,1,1,1
1,1,2,2,13,0.8,0.2,0.2,0.8,-1,0,3,2,1,1,1,-1,0.997140884,0.2,0.8,0.2,0.8,1,0.002863211,0.8,0.2,0,0,0,0,1,1,0
1,1,2,2,14,0.8,0.2,0.2,0.8,1,0,3,2,9,0,9,9,9,0.2,0.8,NaN,NaN,NaN,NaN,0.8,0.2,1,0,1,0,1,0,0
1,1,2,2,15,0.8,0.2,0.2,0.8,1,0,3,2,0,2,2,0,1.208614826,0.2,0.8,0.8,0.2,0,-0.189474932,0.8,0.2,0,0,0,0,1,0,0
1,1,2,2,16,0.8,0.2,0.2,0.8,1,0,4,1,0,1,1,1,1.578496933,0.8,0.2,0.8,0.2,1,-0.456473086,0.2,0.8,0,0,1,1,0,0,1
1,1,2,2,17,0.8,0.2,0.2,0.8,-1,0,4,1,1,2,1,-1,1.258435011,0.8,0.2,0.2,0.8,0,-0.229868894,0.2,0.8,0,0,1,1,1,0,0
1,1,2,2,18,0.8,0.2,0.2,0.8,-1,0,4,1,1,1,2,0,2.022564888,0.8,0.2,0.8,0.2,1,-0.704366453,0.2,0.8,0,0,0,0,1,0,1
1,1,2,2,19,0.8,0.2,0.2,0.8,1,0,4,1,1,2,2,0,1.481327057,0.8,0.2,0.2,0.8,0,-0.392938346,0.2,0.8,0,0,0,0,1,0,1
1,1,2,2,20,0.2,0.8,0.2,0.8,1,0,3,2,0,1,2,0,1.543424129,0.2,0.8,0.2,0.8,1,-0.434003409,0.8,0.2,0,0,1,1,0,0,0
1,1,2,2,21,0.2,0.8,0.2,0.8,1,0,4,1,1,1,2,0,1.755093098,0.2,0.8,0.2,0.8,1,-0.562521903,0.8,0.2,0,0,0,1,0,1,0
1,1,2,2,22,0.2,0.8,0.8,0.2,1,0,3,2,1,2,1,1,2.440615892,0.8,0.2,0.2,0.8,0,-0.892250422,0.2,0.8,0,0,0,0,0,0,1
1,1,2,2,23,0.2,0.8,0.8,0.2,1,0,4,1,0,2,1,1,1.775216103,0.2,0.8,0.8,0.2,0,-0.573922163,0.8,0.2,0,0,0,0,0,1,0
1,1,2,2,24,0.2,0.8,0.8,0.2,-1,0,4,1,1,1,2,0,1.194103003,0.2,0.8,0.2,0.8,1,-0.177395278,0.8,0.2,0,0,0,0,1,0,0
1,1,2,2,25,0.2,0.8,0.8,0.2,-1,0,3,2,0,1,1,-1,1.056506872,0.8,0.2,0.8,0.2,1,-0.054968063,0.2,0.8,0,0,0,0,0,1,0
1,1,2,2,26,0.2,0.8,0.8,0.2,1,0,3,2,0,1,1,1,1.468781948,0.8,0.2,0.8,0.2,1,-0.384433451,0.2,0.8,0,0,1,1,1,1,1
1,1,2,2,27,0.2,0.8,0.8,0.2,1,0,4,1,0,2,1,1,1.142734051,0.2,0.8,0.8,0.2,0,-0.133423681,0.8,0.2,0,0,1,0,0,0,1
1,1,2,2,28,0.2,0.8,0.8,0.2,1,0,3,2,1,1,1,1,2.673280954,0.8,0.2,0.8,0.2,1,-0.98330654,0.2,0.8,0,0,0,1,0,0,0
1,1,2,2,29,0.2,0.8,0.8,0.2,-1,0,4,1,1,1,2,0,1.574163198,0.2,0.8,0.2,0.8,1,-0.453723829,0.8,0.2,0,0,1,0,0,1,1
1,1,2,2,30,0.2,0.8,0.8,0.2,1,0,4,1,0,2,1,1,1.37044692,0.2,0.8,0.8,0.2,0,-0.315136906,0.8,0.2,0,0,0,0,1,0,0
1,1,2,2,31,0.2,0.8,0.8,0.2,-1,0,4,1,1,1,2,0,1.226079941,0.2,0.8,0.2,0.8,1,-0.20382204,0.8,0.2,0,0,0,0,1,0,0
1,1,2,2,32,0.2,0.8,0.8,0.2,-1,0,3,2,1,2,2,0,1.370588064,0.8,0.2,0.2,0.8,0,-0.315239892,0.2,0.8,0,0,0,1,0,0,1
1,1,2,2,33,0.2,0.8,0.8,0.2,-1,0,3,2,0,2,2,0,1.307855129,0.8,0.2,0.2,0.8,0,-0.268388489,0.2,0.8,0,0,1,1,1,1,0
1,1,2,2,34,0.2,0.8,0.8,0.2,-1,0,3,2,1,2,1,-1,1.065696955,0.8,0.2,0.2,0.8,0,-0.063629003,0.2,0.8,0,0,1,1,1,1,0
1,1,2,2,35,0.2,0.8,0.8,0.2,1,0,4,1,0,1,2,0,2.116420031,0.2,0.8,0.2,0.8,1,-0.749725996,0.8,0.2,0,0,0,1,0,0,0
1,1,2,2,36,0.2,0.8,0.8,0.2,-1,0,4,1,1,1,1,-1,1.364866018,0.2,0.8,0.2,0.8,1,-0.311056269,0.8,0.2,0,0,0,0,1,1,0
1,1,2,2,37,0.2,0.8,0.8,0.2,1,0,3,2,1,2,2,0,1.784925938,0.8,0.2,0.2,0.8,0,-0.579376923,0.2,0.8,0,0,1,0,0,0,1
1,1,2,2,38,0.2,0.8,0.8,0.2,1,0,3,2,0,1,1,1,1.19093585,0.8,0.2,0.8,0.2,1,-0.174739427,0.2,0.8,0,0,1,1,1,0,0
1,1,2,2,39,0.2,0.8,0.8,0.2,1,0,4,1,0,1,1,1,2.302506924,0.2,0.8,0.2,0.8,1,-0.833998496,0.8,0.2,0,0,1,1,0,1,1
1,1,2,2,40,0.2,0.8,0.8,0.2,1,0,3,2,1,1,1,1,1.637505054,0.8,0.2,0.8,0.2,1,-0.493173775,0.2,0.8,0,0,1,1,0,1,0
1,1,2,2,41,0.2,0.8,0.8,0.2,-1,0,4,1,0,2,1,-1,1.478013039,0.2,0.8,0.8,0.2,0,-0.390698644,0.8,0.2,0,0,1,1,0,0,0
1,1,2,2,42,0.8,0.2,0.8,0.2,-1,0,3,2,0,1,1,-1,2.868891001,0.8,0.2,0.8,0.2,1,-1.053925544,0.2,0.8,0,0,0,0,0,0,1
1,1,2,2,43,0.8,0.2,0.8,0.2,1,0,4,1,1,1,1,1,1.643368006,0.8,0.2,0.8,0.2,1,-0.496747798,0.2,0.8,0,0,1,1,0,1,0
1,1,2,2,44,0.8,0.2,0.8,0.2,1,0,4,1,1,1,1,1,1.219733,0.8,0.2,0.8,0.2,1,-0.198631982,0.2,0.8,0,0,1,1,1,1,1
1,1,2,2,45,0.8,0.2,0.8,0.2,-1,0,4,1,0,2,1,-1,1.055430889,0.8,0.2,0.2,0.8,0,-0.053949109,0.2,0.8,0,0,1,1,1,0,0
1,1,2,2,46,0.8,0.2,0.8,0.2,1,0,3,2,1,1,2,0,3.72143507,0.8,0.2,0.8,0.2,1,-1.314109365,0.2,0.8,0,0,0,1,0,0,0
1,1,2,2,47,0.8,0.2,0.8,0.2,-1,0,4,1,0,1,1,-1,1.667331934,0.8,0.2,0.8,0.2,1,-0.511224705,0.2,0.8,0,0,0,0,0,1,0
1,1,2,2,48,0.8,0.2,0.8,0.2,-1,0,4,1,1,2,2,0,1.346398115,0.8,0.2,0.2,0.8,0,-0.297432964,0.2,0.8,0,0,1,1,1,0,0
1,1,2,2,49,0.8,0.2,0.8,0.2,1,0,3,2,0,2,1,1,1.347704887,0.8,0.2,0.2,0.8,0,-0.298403062,0.2,0.8,0,0,1,0,0,1,0
1,1,2,2,50,0.8,0.2,0.8,0.2,1,0,4,1,1,1,2,0,1.992560148,0.8,0.2,0.8,0.2,1,-0.689420319,0.2,0.8,0,0,0,1,0,0,0
1,1,2,2,51,0.8,0.2,0.8,0.2,1,0,4,1,0,2,2,0,0.716607809,0.8,0.2,0.2,0.8,0,0.333226577,0.2,0.8,0,0,0,0,1,0,0
1,1,2,2,52,0.8,0.2,0.8,0.2,1,0,3,2,0,2,1,1,1.736224174,0.8,0.2,0.2,0.8,0,-0.551712741,0.2,0.8,0,0,1,0,0,1,1
1,1,2,2,53,0.8,0.2,0.8,0.2,-1,0,3,2,1,1,1,-1,1.225738049,0.8,0.2,0.8,0.2,1,-0.203543151,0.2,0.8,0,0,0,0,1,0,0
1,1,2,2,54,0.8,0.2,0.8,0.2,1,0,4,1,1,2,2,0,1.129352808,0.8,0.2,0.2,0.8,0,-0.121644732,0.2,0.8,0,0,1,0,0,0,1
1,1,2,2,55,0.8,0.2,0.8,0.2,1,0,3,2,0,1,2,0,1.191060066,0.8,0.2,0.8,0.2,1,-0.174843723,0.2,0.8,0,0,1,1,0,0,0
1,1,2,2,56,0.8,0.2,0.8,0.2,1,0,3,2,1,2,2,0,1.342074156,0.8,0.2,0.2,0.8,0,-0.294216295,0.2,0.8,0,0,0,0,1,0,0
1,1,2,2,57,0.8,0.2,0.8,0.2,-1,0,3,2,1,1,1,-1,1.806126833,0.8,0.2,0.8,0.2,1,-0.591184681,0.2,0.8,0,0,1,0,1,0,1
1,1,2,2,58,0.8,0.2,0.8,0.2,1,0,4,1,1,2,1,1,1.02105999,0.8,0.2,0.2,0.8,0,-0.020841294,0.2,0.8,0,0,1,0,0,0,1
1,1,2,2,59,0.8,0.2,0.8,0.2,-1,0,4,1,1,1,1,-1,1.605390072,0.8,0.2,0.8,0.2,1,-0.473366762,0.2,0.8,0,0,0,0,1,0,1
1,1,2,2,60,0.8,0.2,0.8,0.2,-1,0,4,1,0,1,1,-1,1.673238039,0.8,0.2,0.8,0.2,1,-0.514760695,0.2,0.8,0,0,1,0,1,1,0
1,1,3,1,1,0.2,0.8,0.2,0.8,1,0,1,1,1,2,1,1,1.873828888,0.2,0.8,0.8,0.2,0,-0.627983871,0.8,0.2,0,0,1,0,0,0,0
1,1,3,1,2,0.2,0.8,0.2,0.8,-1,0,2,1,1,2,1,-1,2.004298925,0.2,0.8,0.8,0.2,0,-0.695294336,0.8,0.2,0,0,0,1,0,1,1
1,1,3,1,3,0.2,0.8,0.2,0.8,-1,0,1,1,0,1,2,0,1.34275198,0.2,0.8,0.2,0.8,1,-0.294721224,0.8,0.2,0,0,0,0,0,0,0
1,1,3,1,4,0.2,0.8,0.2,0.8,1,0,1,1,0,2,1,1,1.62171793,0.2,0.8,0.8,0.2,0,-0.483486038,0.8,0.2,0,0,0,0,1,0,1
1,1,3,1,5,0.2,0.8,0.2,0.8,1,0,1,1,0,2,1,1,0.925891876,0.2,0.8,0.8,0.2,0,0.076997815,0.8,0.2,0,0,0,0,1,1,1
1,1,3,1,6,0.2,0.8,0.2,0.8,-1,0,2,1,1,1,2,0,1.354861021,0.2,0.8,0.2,0.8,1,-0.303698882,0.8,0.2,0,0,0,0,0,0,0
1,1,3,1,7,0.8,0.2,0.2,0.8,-1,0,2,1,0,1,2,0,1.136439085,0.8,0.2,0.8,0.2,1,-0.127899764,0.2,0.8,0,0,0,0,1,1,0
1,1,3,1,8,0.8,0.2,0.2,0.8,1,0,1,1,0,2,1,1,1.130487919,0.8,0.2,0.2,0.8,0,-0.122649326,0.2,0.8,0,0,0,0,0,0,1
1,1,3,1,9,0.8,0.2,0.2,0.8,-1,0,1,1,0,1,1,-1,1.168740988,0.8,0.2,0.8,0.2,1,-0.155927091,0.2,0.8,0,0,0,0,1,0,1
1,1,3,1,10,0.8,0.2,0.2,0.8,1,0,1,1,0,2,2,0,1.726134062,0.8,0.2,0.2,0.8,0,-0.545884262,0.2,0.8,0,0,1,0,1,0,1
1,1,3,1,11,0.8,0.2,0.2,0.8,-1,0,1,1,0,2,2,0,2.46094203,0.8,0.2,0.2,0.8,0,-0.900544216,0.2,0.8,0,0,1,1,1,1,1
1,1,3,1,12,0.8,0.2,0.2,0.8,1,0,1,1,0,1,2,0,1.500272036,0.8,0.2,0.8,0.2,1,-0.405646449,0.2,0.8,0,0,1,1,1,0,1
1,1,3,1,13,0.8,0.2,0.2,0.8,-1,0,2,1,0,1,1,-1,3.445037127,0.8,0.2,0.8,0.2,1,-1.236934681,0.2,0.8,0,0,0,0,0,1,1
1,1,3,1,14,0.8,0.2,0.2,0.8,-1,0,1,1,1,1,1,-1,2.482326984,0.8,0.2,0.8,0.2,1,-0.90919642,0.2,0.8,0,0,1,0,0,1,0
1,1,3,1,15,0.8,0.2,0.2,0.8,-1,0,2,1,1,1,1,-1,1.402658939,0.8,0.2,0.8,0.2,1,-0.338369678,0.2,0.8,0,0,1,0,0,1,1
1,1,3,1,16,0.8,0.2,0.2,0.8,-1,0,2,1,0,1,2,0,1.128391027,0.8,0.2,0.8,0.2,1,-0.120792749,0.2,0.8,0,0,1,0,1,1,0
1,1,3,1,17,0.8,0.2,0.2,0.8,1,0,2,1,1,2,2,0,1.062455893,0.8,0.2,0.2,0.8,0,-0.060583108,0.2,0.8,0,0,0,0,1,0,0
1,1,3,1,18,0.8,0.2,0.2,0.8,-1,0,2,1,1,2,2,0,2.093695879,0.8,0.2,0.2,0.8,0,-0.738930867,0.2,0.8,0,0,1,1,1,1,1
1,1,3,1,19,0.8,0.2,0.2,0.8,-1,0,1,1,1,2,2,0,2.294739008,0.8,0.2,0.2,0.8,0,-0.830619115,0.2,0.8,0,0,1,1,0,1,1
1,1,3,1,20,0.8,0.2,0.2,0.8,1,0,2,1,1,1,1,1,1.464418888,0.8,0.2,0.8,0.2,1,-0.3814585,0.2,0.8,0,0,1,1,0,0,1
1,1,3,1,21,0.8,0.2,0.2,0.8,1,0,2,1,0,1,1,1,1.038260937,0.8,0.2,0.8,0.2,1,-0.037547137,0.2,0.8,0,0,1,1,1,1,0
1,1,3,1,22,0.8,0.2,0.2,0.8,1,0,1,1,1,1,1,1,0.978777885,0.8,0.2,0.8,0.2,1,0.021450541,0.2,0.8,0,0,1,1,0,1,0
1,1,3,1,23,0.8,0.2,0.2,0.8,-1,0,1,1,1,2,1,-1,1.479110003,0.8,0.2,0.2,0.8,0,-0.391440557,0.2,0.8,0,0,1,1,1,0,1
1,1,3,1,24,0.8,0.2,0.2,0.8,-1,0,2,1,0,1,1,-1,2.228234053,0.8,0.2,0.8,0.2,1,-0.801209367,0.2,0.8,0,0,0,0,0,0,0
1,1,3,1,25,0.8,0.2,0.2,0.8,-1,0,2,1,0,2,2,0,1.705764055,0.8,0.2,0.2,0.8,0,-0.534013137,0.2,0.8,0,0,1,1,1,0,1
1,1,3,1,26,0.8,0.2,0.2,0.8,-1,0,1,1,1,1,1,-1,2.006165028,0.8,0.2,0.8,0.2,1,-0.696224953,0.2,0.8,0,0,1,0,0,0,0
1,1,3,1,27,0.8,0.2,0.2,0.8,-1,0,2,1,1,2,2,0,2.099823952,0.8,0.2,0.2,0.8,0,-0.741853509,0.2,0.8,0,0,1,1,0,0,1
1,1,3,1,28,0.8,0.2,0.2,0.8,1,0,1,1,0,1,2,0,1.345828056,0.8,0.2,0.8,0.2,1,-0.297009479,0.2,0.8,0,0,1,1,0,0,0
1,1,3,1,29,0.8,0.2,0.2,0.8,-1,0,1,1,0,1,1,-1,1.293224096,0.8,0.2,0.8,0.2,1,-0.2571384,0.2,0.8,0,0,0,0,1,1,1
1,1,3,1,30,0.8,0.2,0.2,0.8,-1,0,2,1,1,2,2,0,1.61017108,0.8,0.2,0.2,0.8,0,-0.476340434,0.2,0.8,0,0,1,1,0,0,0
1,1,3,1,31,0.8,0.2,0.2,0.8,1,0,1,1,0,1,1,1,1.139364004,0.8,0.2,0.8,0.2,1,-0.130470216,0.2,0.8,0,0,1,1,0,0,0
1,1,3,1,32,0.8,0.2,0.2,0.8,-1,0,2,1,1,2,2,0,1.258560181,0.8,0.2,0.2,0.8,0,-0.229968354,0.2,0.8,0,0,1,1,0,0,0
1,1,3,1,33,0.8,0.2,0.2,0.8,1,0,2,1,1,1,1,1,1.334243059,0.8,0.2,0.8,0.2,1,-0.288364134,0.2,0.8,0,0,1,1,1,0,1
1,1,3,1,34,0.8,0.2,0.2,0.8,-1,0,1,1,1,2,1,-1,2.220987082,0.8,0.2,0.2,0.8,0,-0.797951728,0.2,0.8,0,0,1,1,0,0,1
1,1,3,1,35,0.8,0.2,0.2,0.8,-1,0,1,1,0,1,1,-1,1.176412106,0.8,0.2,0.8,0.2,1,-0.162469218,0.2,0.8,0,0,0,0,1,0,0
1,1,3,1,36,0.8,0.2,0.2,0.8,-1,0,2,1,1,1,1,-1,1.464818954,0.8,0.2,0.8,0.2,1,-0.381731654,0.2,0.8,0,0,1,0,0,1,0
1,1,3,1,37,0.8,0.2,0.2,0.8,-1,0,1,1,1,2,1,-1,3.016340017,0.8,0.2,0.2,0.8,0,-1.104044182,0.2,0.8,0,0,1,1,0,0,1
1,1,3,1,38,0.8,0.2,0.2,0.8,1,0,2,1,0,2,2,0,1.827505112,0.8,0.2,0.2,0.8,0,-0.60295171,0.2,0.8,0,0,0,0,0,1,0
1,1,3,1,39,0.8,0.2,0.2,0.8,1,0,2,1,0,2,1,1,2.254378796,0.8,0.2,0.2,0.8,0,-0.812874456,0.2,0.8,0,0,1,0,1,1,1
1,1,3,1,40,0.8,0.2,0.2,0.8,1,0,2,1,0,2,2,0,1.113568068,0.8,0.2,0.2,0.8,0,-0.107569335,0.2,0.8,0,0,0,0,1,1,1
1,1,3,1,41,0.8,0.2,0.2,0.8,1,0,1,1,1,2,2,0,2.026684046,0.8,0.2,0.2,0.8,0,-0.706400982,0.2,0.8,0,0,1,0,0,1,0
1,1,3,1,42,0.8,0.2,0.2,0.8,1,0,1,1,0,1,1,1,1.184024096,0.8,0.2,0.8,0.2,1,-0.168918887,0.2,0.8,0,0,1,1,1,0,0
1,1,3,1,43,0.8,0.2,0.2,0.8,1,0,2,1,0,1,1,1,0.986583948,0.8,0.2,0.8,0.2,1,0.01350686,0.2,0.8,0,0,1,1,0,1,1
1,1,3,1,44,0.8,0.2,0.2,0.8,-1,0,2,1,0,2,2,0,1.252972841,0.8,0.2,0.2,0.8,0,-0.225519001,0.2,0.8,0,0,1,1,1,0,1
1,1,3,1,45,0.8,0.2,0.2,0.8,1,0,1,1,1,1,1,1,1.515437841,0.8,0.2,0.8,0.2,1,-0.415704401,0.2,0.8,0,0,1,1,0,0,0
1,1,3,1,46,0.8,0.2,0.2,0.8,-1,0,2,1,1,1,1,-1,1.599507093,0.8,0.2,0.8,0.2,1,-0.469695515,0.2,0.8,0,0,1,0,0,1,1
1,1,3,1,47,0.8,0.2,0.2,0.8,1,0,1,1,0,2,2,0,1.108500957,0.8,0.2,0.2,0.8,0,-0.103008614,0.2,0.8,0,0,1,0,0,0,0
1,1,3,1,48,0.8,0.2,0.2,0.8,-1,0,2,1,1,1,1,-1,2.069549084,0.8,0.2,0.8,0.2,1,-0.72733075,0.2,0.8,0,0,1,0,0,0,0
1,1,3,1,49,0.8,0.2,0.2,0.8,-1,0,1,1,1,2,2,0,2.136929035,0.8,0.2,0.2,0.8,0,-0.759369768,0.2,0.8,0,0,1,1,0,0,1
1,1,3,1,50,0.8,0.2,0.2,0.8,1,0,2,1,0,1,1,1,1.373755932,0.8,0.2,0.8,0.2,1,-0.317548545,0.2,0.8,0,0,1,1,0,0,0
1,1,3,1,51,0.2,0.8,0.2,0.8,-1,0,2,1,0,2,1,-1,2.123243093,0.2,0.8,0.8,0.2,0,-0.752944681,0.8,0.2,0,0,1,1,1,0,1
1,1,3,1,52,0.2,0.8,0.2,0.8,1,0,2,1,0,2,1,1,1.474792957,0.2,0.8,0.8,0.2,0,-0.388517612,0.8,0.2,0,0,0,0,1,1,1
1,1,3,1,53,0.2,0.8,0.2,0.8,1,0,1,1,0,2,1,1,1.106621027,0.2,0.8,0.8,0.2,0,-0.101311253,0.8,0.2,0,0,0,0,0,1,1
1,1,3,1,54,0.2,0.8,0.2,0.8,1,0,2,1,1,2,1,1,1.64705801,0.2,0.8,0.8,0.2,0,-0.498990672,0.8,0.2,0,0,0,0,0,1,0
1,1,3,1,55,0.2,0.8,0.2,0.8,-1,0,1,1,1,1,2,0,1.253350973,0.2,0.8,0.2,0.8,1,-0.225820743,0.8,0.2,0,0,0,0,0,0,1
1,1,3,1,56,0.2,0.8,0.2,0.8,1,0,2,1,0,2,2,0,1.109637976,0.2,0.8,0.8,0.2,0,-0.104033814,0.8,0.2,0,0,0,0,0,0,0
1,1,3,1,57,0.2,0.8,0.2,0.8,-1,0,1,1,0,2,1,-1,1.65773201,0.2,0.8,0.8,0.2,0,-0.505450409,0.8,0.2,0,0,1,1,0,1,1
1,1,3,1,58,0.2,0.8,0.2,0.8,-1,0,2,1,0,2,1,-1,2.123985052,0.2,0.8,0.8,0.2,0,-0.753294066,0.8,0.2,0,0,0,1,0,1,1
1,1,3,1,59,0.2,0.8,0.2,0.8,-1,0,1,1,1,1,2,0,1.248394012,0.2,0.8,0.2,0.8,1,-0.221857935,0.8,0.2,0,0,0,0,0,0,0
1,1,3,1,60,0.2,0.8,0.2,0.8,1,0,1,1,1,2,1,1,1.679301023,0.2,0.8,0.8,0.2,0,-0.518377649,0.8,0.2,0,0,0,0,1,0,1
1,1,4,2,1,0.2,0.8,0.8,0.2,1,0,4,1,1,1,1,1,2.923150063,0.2,0.8,0.2,0.8,1,-1.072661823,0.8,0.2,0,0,0,1,0,0,1
1,1,4,2,2,0.2,0.8,0.8,0.2,1,0,3,2,0,1,1,1,1.712544203,0.8,0.2,0.8,0.2,1,-0.537980103,0.2,0.8,0,0,1,1,0,1,0
1,1,4,2,3,0.2,0.8,0.8,0.2,1,0,4,1,0,1,2,0,0.898994207,0.2,0.8,0.2,0.8,1,0.106478688,0.8,0.2,0,0,1,1,0,1,1
1,1,4,2,4,0.2,0.8,0.8,0.2,1,0,4,1,1,2,1,1,1.907721996,0.2,0.8,0.8,0.2,0,-0.645909858,0.8,0.2,0,0,0,0,1,0,0
1,1,4,2,5,0.2,0.8,0.2,0.8,-1,0,4,1,0,1,2,0,1.347738981,0.2,0.8,0.2,0.8,1,-0.29842836,0.8,0.2,0,0,0,0,1,0,0
1,1,4,2,6,0.2,0.8,0.2,0.8,-1,0,4,1,0,1,2,0,1.693548918,0.2,0.8,0.2,0.8,1,-0.526826278,0.8,0.2,0,0,0,0,1,1,1
1,1,4,2,7,0.2,0.8,0.2,0.8,-1,0,4,1,1,1,2,0,2.358747959,0.2,0.8,0.2,0.8,1,-0.858130952,0.8,0.2,0,0,0,0,1,1,0
1,1,4,2,8,0.2,0.8,0.2,0.8,1,0,4,1,0,2,1,1,1.020993948,0.2,0.8,0.8,0.2,0,-0.020776612,0.8,0.2,0,0,0,0,1,0,0
1,1,4,2,9,0.2,0.8,0.2,0.8,1,0,4,1,0,2,1,1,1.153708935,0.2,0.8,0.8,0.2,0,-0.142981913,0.8,0.2,0,0,0,0,1,1,1
1,1,4,2,10,0.2,0.8,0.2,0.8,-1,0,3,2,0,1,1,-1,1.768065929,0.2,0.8,0.2,0.8,1,-0.569886254,0.8,0.2,0,0,0,0,0,0,1
1,1,4,2,11,0.8,0.2,0.2,0.8,1,0,3,2,1,1,2,0,1.214550018,0.2,0.8,0.2,0.8,1,-0.194373653,0.8,0.2,0,0,1,1,1,1,0
1,1,4,2,12,0.8,0.2,0.2,0.8,-1,0,3,2,1,1,2,0,1.370392084,0.2,0.8,0.2,0.8,1,-0.315096892,0.8,0.2,0,0,0,0,1,1,1
1,1,4,2,13,0.8,0.2,0.2,0.8,1,0,3,2,1,2,1,1,1.178915977,0.2,0.8,0.8,0.2,0,-0.164595353,0.8,0.2,0,0,0,0,1,0,1
1,1,4,2,14,0.8,0.2,0.2,0.8,-1,0,4,1,0,1,1,-1,1.459906101,0.8,0.2,0.8,0.2,1,-0.378372119,0.2,0.8,0,0,0,0,0,0,0
1,1,4,2,15,0.8,0.2,0.2,0.8,1,0,3,2,0,1,2,0,1.187668085,0.2,0.8,0.2,0.8,1,-0.171991792,0.8,0.2,0,0,1,1,0,1,1
1,1,4,2,16,0.8,0.2,0.2,0.8,1,0,4,1,1,2,1,1,3.56569314,0.8,0.2,0.2,0.8,0,-1.271358464,0.2,0.8,0,0,0,0,0,0,0
1,1,4,2,17,0.8,0.2,0.2,0.8,-1,0,4,1,0,1,1,-1,2.157119036,0.8,0.2,0.8,0.2,1,-0.768773552,0.2,0.8,0,0,0,0,1,0,0
1,1,4,2,18,0.8,0.2,0.2,0.8,1,0,3,2,0,1,2,0,2.54402113,0.2,0.8,0.2,0.8,1,-0.933745951,0.8,0.2,0,0,1,1,0,1,1
1,1,4,2,19,0.8,0.2,0.2,0.8,1,0,4,1,0,2,2,0,2.672050953,0.8,0.2,0.2,0.8,0,-0.982846325,0.2,0.8,0,0,0,0,0,0,1
1,1,4,2,20,0.8,0.2,0.2,0.8,1,0,4,1,1,1,2,0,1.571856976,0.8,0.2,0.8,0.2,1,-0.452257707,0.2,0.8,0,0,1,1,1,0,0
1,1,4,2,21,0.8,0.2,0.2,0.8,-1,0,3,2,1,2,1,-1,2.874522924,0.2,0.8,0.8,0.2,0,-1.055886721,0.8,0.2,0,0,0,1,0,0,1
1,1,4,2,22,0.8,0.2,0.2,0.8,-1,0,4,1,0,1,2,0,1.545823812,0.8,0.2,0.8,0.2,1,-0.43555698,0.2,0.8,0,0,0,0,0,0,0
1,1,4,2,23,0.8,0.2,0.2,0.8,-1,0,3,2,1,1,2,0,1.716332197,0.2,0.8,0.2,0.8,1,-0.54018957,0.8,0.2,0,0,0,0,0,1,0
1,1,4,2,24,0.8,0.2,0.2,0.8,-1,0,3,2,1,1,2,0,0.860053062,0.2,0.8,0.2,0.8,1,0.150761191,0.8,0.2,0,0,0,0,1,1,1
1,1,4,2,25,0.8,0.2,0.2,0.8,1,0,4,1,0,2,2,0,0.677978992,0.8,0.2,0.2,0.8,0,0.388638976,0.2,0.8,0,0,0,0,0,0,0
1,1,4,2,26,0.8,0.2,0.2,0.8,1,0,4,1,0,1,1,1,2.561322927,0.8,0.2,0.8,0.2,1,-0.940523894,0.2,0.8,0,0,1,1,1,0,1
1,1,4,2,27,0.8,0.2,0.2,0.8,1,0,3,2,1,1,2,0,1.102243185,0.2,0.8,0.2,0.8,1,-0.097347362,0.8,0.2,0,0,1,1,0,1,0
1,1,4,2,28,0.8,0.2,0.2,0.8,-1,0,3,2,1,2,1,-1,2.344146013,0.2,0.8,0.8,0.2,0,-0.851921162,0.8,0.2,0,0,0,1,1,0,1
1,1,4,2,29,0.8,0.2,0.2,0.8,-1,0,4,1,0,1,1,-1,1.464033127,0.8,0.2,0.8,0.2,1,-0.381195043,0.2,0.8,0,0,0,0,0,0,0
1,1,4,2,30,0.8,0.2,0.2,0.8,-1,0,4,1,1,2,1,-1,2.155548811,0.8,0.2,0.2,0.8,0,-0.76804536,0.2,0.8,0,0,1,1,1,0,0
1,1,4,2,31,0.8,0.2,0.2,0.8,1,0,3,2,1,1,2,0,2.574018002,0.2,0.8,0.2,0.8,1,-0.945468103,0.8,0.2,0,0,0,1,0,0,1
1,1,4,2,32,0.8,0.2,0.2,0.8,-1,0,3,2,0,1,2,0,1.225352049,0.2,0.8,0.2,0.8,1,-0.20322819,0.8,0.2,0,0,0,0,1,1,0
1,1,4,2,33,0.8,0.2,0.8,0.2,1,0,3,2,1,2,2,0,0.778005123,0.8,0.2,0.2,0.8,0,0.25102217,0.2,0.8,0,0,0,0,1,0,0
1,1,4,2,34,0.8,0.2,0.8,0.2,1,0,3,2,1,2,2,0,0.666327,0.8,0.2,0.2,0.8,0,0.405974738,0.2,0.8,0,0,1,0,1,1,1
1,1,4,2,35,0.8,0.2,0.8,0.2,1,0,4,1,0,1,1,1,1.023111105,0.8,0.2,0.8,0.2,1,-0.022848088,0.2,0.8,0,0,1,1,0,0,0
1,1,4,2,36,0.8,0.2,0.8,0.2,1,0,3,2,1,1,1,1,0.832969904,0.8,0.2,0.8,0.2,1,0.182757767,0.2,0.8,0,0,1,1,0,1,0
1,1,4,2,37,0.8,0.2,0.8,0.2,-1,0,4,1,1,2,2,0,1.475085974,0.8,0.2,0.2,0.8,0,-0.388716275,0.2,0.8,0,0,1,1,0,0,1
1,1,4,2,38,0.8,0.2,0.8,0.2,-1,0,4,1,1,2,1,-1,1.531508923,0.8,0.2,0.2,0.8,0,-0.426253473,0.2,0.8,0,0,1,1,1,1,1
1,1,4,2,39,0.8,0.2,0.8,0.2,-1,0,4,1,1,1,1,-1,1.534089088,0.8,0.2,0.8,0.2,1,-0.427936777,0.2,0.8,0,0,0,0,1,0,1
1,1,4,2,40,0.8,0.2,0.8,0.2,-1,0,4,1,0,2,2,0,1.392019987,0.8,0.2,0.2,0.8,0,-0.33075592,0.2,0.8,0,0,1,1,1,0,0
1,1,4,2,41,0.8,0.2,0.2,0.8,1,0,3,2,1,2,1,1,2.074127913,0.2,0.8,0.8,0.2,0,-0.729540782,0.8,0.2,0,0,1,0,0,1,0
1,1,4,2,42,0.8,0.2,0.2,0.8,1,0,3,2,1,2,1,1,0.623987913,0.2,0.8,0.8,0.2,0,0.471624281,0.8,0.2,0,0,0,0,1,1,1
1,1,4,2,43,0.8,0.2,0.2,0.8,1,0,3,2,0,2,1,1,0.632853031,0.2,0.8,0.8,0.2,0,0.457517062,0.8,0.2,0,0,0,0,1,1,0
1,1,4,2,44,0.2,0.8,0.2,0.8,1,0,4,1,1,2,1,1,0.568487883,0.2,0.8,0.8,0.2,0,0.564775281,0.8,0.2,0,0,0,0,0,1,0
1,1,4,2,45,0.2,0.8,0.2,0.8,1,0,3,2,0,2,2,0,0.883383989,0.2,0.8,0.8,0.2,0,0.123995304,0.8,0.2,0,0,0,0,0,1,0
1,1,4,2,46,0.2,0.8,0.2,0.8,-1,0,3,2,1,2,1,-1,1.267565012,0.2,0.8,0.8,0.2,0,-0.237097747,0.8,0.2,0,0,1,1,1,1,0
1,1,4,2,47,0.2,0.8,0.2,0.8,1,0,4,1,1,2,1,1,1.245455027,0.2,0.8,0.8,0.2,0,-0.219500946,0.8,0.2,0,0,0,0,0,1,1
1,1,4,2,48,0.2,0.8,0.2,0.8,-1,0,4,1,1,1,2,0,1.516062021,0.2,0.8,0.2,0.8,1,-0.416116198,0.8,0.2,0,0,0,0,1,0,1
1,1,4,2,49,0.2,0.8,0.2,0.8,1,0,3,2,0,2,1,1,0.867012024,0.2,0.8,0.8,0.2,0,0.142702434,0.8,0.2,0,0,0,0,0,0,0
1,1,4,2,50,0.2,0.8,0.2,0.8,-1,0,4,1,0,1,2,0,1.881479025,0.2,0.8,0.2,0.8,1,-0.632058183,0.8,0.2,0,0,0,0,0,0,1
1,1,4,2,51,0.2,0.8,0.2,0.8,1,0,3,2,0,2,1,1,1.00169611,0.2,0.8,0.8,0.2,0,-0.001694673,0.8,0.2,0,0,0,0,0,0,1
1,1,4,2,52,0.2,0.8,0.2,0.8,-1,0,3,2,1,1,2,0,0.961924076,0.2,0.8,0.2,0.8,1,0.038819754,0.8,0.2,0,0,0,0,1,0,0
1,1,4,2,53,0.2,0.8,0.2,0.8,-1,0,3,2,0,1,1,-1,1.35643816,0.2,0.8,0.2,0.8,1,-0.304862264,0.8,0.2,0,0,0,0,1,1,0
1,1,4,2,54,0.2,0.8,0.8,0.2,1,0,3,2,1,1,1,1,1.838489056,0.8,0.2,0.8,0.2,1,-0.608944069,0.2,0.8,0,0,1,1,1,1,0
1,1,4,2,55,0.2,0.8,0.8,0.2,-1,0,3,2,0,2,1,-1,1.240849972,0.8,0.2,0.2,0.8,0,-0.215796606,0.2,0.8,0,0,1,1,1,0,0
1,1,4,2,56,0.2,0.8,0.8,0.2,1,0,3,2,0,2,2,0,0.969014883,0.8,0.2,0.2,0.8,0,0.031475308,0.2,0.8,0,0,0,0,1,1,1
1,1,4,2,57,0.2,0.8,0.8,0.2,1,0,4,1,1,2,2,0,1.84956193,0.2,0.8,0.8,0.2,0,-0.614948816,0.8,0.2,0,0,1,0,0,1,0
1,1,4,2,58,0.2,0.8,0.8,0.2,-1,0,3,2,1,2,2,0,1.704792976,0.8,0.2,0.2,0.8,0,-0.533443682,0.2,0.8,0,0,1,1,0,1,1
1,1,4,2,59,0.2,0.8,0.8,0.2,1,0,4,1,1,1,2,0,1.103034973,0.2,0.8,0.2,0.8,1,-0.098065447,0.8,0.2,0,0,1,1,0,0,1
1,1,4,2,60,0.2,0.8,0.8,0.2,1,0,4,1,0,2,2,0,1.271888018,0.2,0.8,0.8,0.2,0,-0.240502425,0.8,0.2,0,0,0,0,1,0,0
1,1,5,1,1,0.2,0.8,0.2,0.8,1,0,1,1,1,2,2,0,1.206873894,0.2,0.8,0.8,0.2,0,-0.188033458,0.8,0.2,0,0,1,0,0,1,0
1,1,5,1,2,0.2,0.8,0.2,0.8,-1,0,1,1,1,2,1,-1,1.228289127,0.2,0.8,0.8,0.2,0,-0.205622248,0.8,0.2,0,0,1,1,1,1,1
1,1,5,1,3,0.2,0.8,0.2,0.8,1,0,2,1,0,2,2,0,1.496302128,0.2,0.8,0.8,0.2,0,-0.402996816,0.8,0.2,0,0,0,0,0,1,0
1,1,5,1,4,0.2,0.8,0.2,0.8,1,0,2,1,0,1,2,0,1.278002977,0.2,0.8,0.2,0.8,1,-0.245298686,0.8,0.2,0,0,1,1,1,0,1
1,1,5,1,5,0.2,0.8,0.2,0.8,1,0,2,1,0,2,1,1,1.376490116,0.2,0.8,0.8,0.2,0,-0.319536865,0.8,0.2,0,0,0,0,1,0,1
1,1,5,1,6,0.2,0.8,0.2,0.8,-1,0,2,1,1,1,2,0,1.347873926,0.2,0.8,0.2,0.8,1,-0.298528482,0.8,0.2,0,0,0,0,1,0,0
1,1,5,1,7,0.2,0.8,0.2,0.8,1,0,2,1,0,2,1,1,0.681849003,0.2,0.8,0.8,0.2,0,0.382947049,0.8,0.2,0,0,0,0,1,0,0
1,1,5,1,8,0.2,0.8,0.2,0.8,-1,0,2,1,1,1,2,0,0.829589128,0.2,0.8,0.2,0.8,1,0.186824727,0.8,0.2,0,0,0,0,1,0,0
1,1,5,1,9,0.2,0.8,0.2,0.8,1,0,2,1,1,2,1,1,0.850785017,0.2,0.8,0.8,0.2,0,0.161595806,0.8,0.2,0,0,0,0,1,0,1
1,1,5,1,10,0.2,0.8,0.2,0.8,-1,0,1,1,1,1,2,0,1.230787039,0.2,0.8,0.2,0.8,1,-0.207653834,0.8,0.2,0,0,0,0,0,0,1
1,1,5,1,11,0.8,0.2,0.2,0.8,1,0,2,1,1,2,2,0,1.105116844,0.8,0.2,0.2,0.8,0,-0.099951071,0.2,0.8,0,0,0,0,0,0,1
1,1,5,1,12,0.8,0.2,0.2,0.8,1,0,1,1,1,1,1,1,1.051436901,0.8,0.2,0.8,0.2,1,-0.050157706,0.2,0.8,0,0,1,1,0,0,1
1,1,5,1,13,0.8,0.2,0.2,0.8,1,0,1,1,0,1,2,0,1.467970133,0.8,0.2,0.8,0.2,1,-0.383880585,0.2,0.8,0,0,1,1,1,1,0
1,1,5,1,14,0.8,0.2,0.2,0.8,-1,0,2,1,0,1,1,-1,2.63330102,0.8,0.2,0.8,0.2,1,-0.9682382,0.2,0.8,0,0,0,0,0,1,1
1,1,5,1,15,0.8,0.2,0.2,0.8,-1,0,1,1,0,2,1,-1,1.653787136,0.8,0.2,0.2,0.8,0,-0.503067892,0.2,0.8,0,0,1,1,0,0,1
1,1,5,1,16,0.8,0.2,0.2,0.8,1,0,1,1,1,2,2,0,0.906813145,0.8,0.2,0.2,0.8,0,0.097818865,0.2,0.8,0,0,0,0,1,1,0
1,1,5,1,17,0.8,0.2,0.2,0.8,-1,0,1,1,1,2,2,0,1.316769123,0.8,0.2,0.2,0.8,0,-0.275181102,0.2,0.8,0,0,1,1,1,1,1
1,1,5,1,18,0.8,0.2,0.2,0.8,1,0,2,1,0,1,2,0,0.904826164,0.8,0.2,0.8,0.2,1,0.100012437,0.2,0.8,0,0,1,1,0,0,0
1,1,5,1,19,0.8,0.2,0.2,0.8,-1,0,2,1,1,2,2,0,1.349960089,0.8,0.2,0.2,0.8,0,-0.300075028,0.2,0.8,0,0,0,1,1,0,0
1,1,5,1,20,0.8,0.2,0.2,0.8,-1,0,1,1,1,2,2,0,1.414139986,0.8,0.2,0.2,0.8,0,-0.346521563,0.2,0.8,0,0,1,1,0,1,1
1,1,5,1,21,0.8,0.2,0.2,0.8,1,0,1,1,1,1,2,0,0.755723,0.8,0.2,0.8,0.2,1,0.280080373,0.2,0.8,0,0,1,1,1,0,1
1,1,5,1,22,0.8,0.2,0.2,0.8,1,0,1,1,0,2,2,0,1.76926899,0.8,0.2,0.2,0.8,0,-0.570566461,0.2,0.8,0,0,0,0,1,0,0
1,1,5,1,23,0.8,0.2,0.2,0.8,-1,0,1,1,0,2,2,0,1.007956028,0.8,0.2,0.2,0.8,0,-0.007924546,0.2,0.8,0,0,1,1,1,1,1
1,1,5,1,24,0.8,0.2,0.2,0.8,-1,0,2,1,0,2,2,0,1.350409985,0.8,0.2,0.2,0.8,0,-0.300408239,0.2,0.8,0,0,1,1,0,1,1
1,1,5,1,25,0.8,0.2,0.2,0.8,1,0,2,1,1,1,1,1,1.10697794,0.8,0.2,0.8,0.2,1,-0.101633725,0.2,0.8,0,0,1,1,1,0,0
1,1,5,1,26,0.8,0.2,0.2,0.8,1,0,2,1,1,1,1,1,0.75652504,0.8,0.2,0.8,0.2,1,0.279019647,0.2,0.8,0,0,1,1,1,1,1
1,1,5,1,27,0.8,0.2,0.2,0.8,1,0,2,1,1,1,1,1,0.749669075,0.8,0.2,0.8,0.2,1,0.288123403,0.2,0.8,0,0,1,1,1,1,1
1,1,5,1,28,0.8,0.2,0.2,0.8,1,0,2,1,1,1,1,1,0.692822933,0.8,0.2,0.8,0.2,1,0.36698082,0.2,0.8,0,0,1,1,1,1,1
1,1,5,1,29,0.8,0.2,0.2,0.8,-1,0,2,1,1,2,2,0,1.419710875,0.8,0.2,0.2,0.8,0,-0.350453241,0.2,0.8,0,0,1,1,1,0,1
1,1,5,1,30,0.8,0.2,0.2,0.8,-1,0,2,1,0,2,2,0,0.975700855,0.8,0.2,0.2,0.8,0,0.02459924,0.2,0.8,0,0,1,1,1,1,0
1,1,5,1,31,0.8,0.2,0.2,0.8,-1,0,1,1,1,2,2,0,0.735491991,0.8,0.2,0.2,0.8,0,0.307215628,0.2,0.8,0,0,1,1,0,1,0
1,1,5,1,32,0.8,0.2,0.2,0.8,1,0,1,1,0,1,1,1,1.673370123,0.8,0.2,0.8,0.2,1,-0.514839631,0.2,0.8,0,0,1,1,1,0,0
1,1,5,1,33,0.8,0.2,0.2,0.8,-1,0,1,1,0,2,2,0,1.020616055,0.8,0.2,0.2,0.8,0,-0.02040642,0.2,0.8,0,0,1,1,1,0,1
1,1,5,1,34,0.8,0.2,0.2,0.8,-1,0,1,1,0,2,1,-1,0.741173983,0.8,0.2,0.2,0.8,0,0.299519887,0.2,0.8,0,0,1,1,1,1,1
1,1,5,1,35,0.8,0.2,0.2,0.8,1,0,2,1,1,2,1,1,1.465543985,0.8,0.2,0.2,0.8,0,-0.382226495,0.2,0.8,0,0,0,0,0,1,0
1,1,5,1,36,0.8,0.2,0.2,0.8,-1,0,1,1,0,1,2,0,0.822700977,0.8,0.2,0.8,0.2,1,0.195162477,0.2,0.8,0,0,0,0,0,0,0
1,1,5,1,37,0.8,0.2,0.2,0.8,-1,0,1,1,1,1,1,-1,1.284425974,0.8,0.2,0.8,0.2,1,-0.250311906,0.2,0.8,0,0,0,0,1,1,0
1,1,5,1,38,0.8,0.2,0.2,0.8,-1,0,2,1,0,2,1,-1,1.078142881,0.8,0.2,0.2,0.8,0,-0.075240007,0.2,0.8,0,0,1,1,0,0,0
1,1,5,1,39,0.8,0.2,0.2,0.8,1,0,1,1,1,2,2,0,1.346405029,0.8,0.2,0.2,0.8,0,-0.297438099,0.2,0.8,0,0,0,0,0,1,0
1,1,5,1,40,0.8,0.2,0.2,0.8,-1,0,1,1,1,2,2,0,1.233792067,0.8,0.2,0.2,0.8,0,-0.210092408,0.2,0.8,0,0,1,1,1,1,1
1,1,5,1,41,0.8,0.2,0.2,0.8,-1,0,2,1,1,2,2,0,1.310952902,0.8,0.2,0.2,0.8,0,-0.270754279,0.2,0.8,0,0,1,1,0,1,1
1,1,5,1,42,0.8,0.2,0.2,0.8,-1,0,1,1,0,2,2,0,1.164171934,0.8,0.2,0.2,0.8,0,-0.152010048,0.2,0.8,0,0,1,1,0,1,0
1,1,5,1,43,0.8,0.2,0.2,0.8,-1,0,2,1,0,2,2,0,1.312535048,0.8,0.2,0.2,0.8,0,-0.271960418,0.2,0.8,0,0,1,1,0,1,1
1,1,5,1,44,0.8,0.2,0.2,0.8,1,0,1,1,1,1,1,1,2.466814995,0.8,0.2,0.8,0.2,1,-0.902927843,0.2,0.8,0,0,1,1,0,0,0
1,1,5,1,45,0.8,0.2,0.2,0.8,1,0,1,1,1,1,1,1,0.961608887,0.8,0.2,0.8,0.2,1,0.039147474,0.2,0.8,0,0,1,1,1,1,1
1,1,5,1,46,0.8,0.2,0.2,0.8,-1,0,1,1,1,2,1,-1,1.185740232,0.8,0.2,0.2,0.8,0,-0.170367248,0.2,0.8,0,0,1,1,1,0,1
1,1,5,1,47,0.2,0.8,0.2,0.8,-1,0,1,1,0,1,2,0,1.067485094,0.2,0.8,0.2,0.8,1,-0.065305503,0.8,0.2,0,0,0,0,1,0,0
1,1,5,1,48,0.2,0.8,0.2,0.8,1,0,1,1,0,2,2,0,0.855243921,0.2,0.8,0.8,0.2,0,0.156368563,0.8,0.2,0,0,0,0,1,0,1
1,1,5,1,49,0.2,0.8,0.2,0.8,1,0,2,1,1,1,2,0,1.382917881,0.2,0.8,0.2,0.8,1,-0.324195673,0.8,0.2,0,0,1,1,0,0,0
1,1,5,1,50,0.2,0.8,0.2,0.8,-1,0,1,1,0,1,2,0,1.017335892,0.2,0.8,0.2,0.8,1,-0.01718734,0.8,0.2,0,0,0,0,0,1,0
1,1,5,1,51,0.2,0.8,0.2,0.8,-1,0,1,1,1,1,2,0,0.662873983,0.2,0.8,0.2,0.8,1,0.411170377,0.8,0.2,0,0,0,0,1,1,0
1,1,5,1,52,0.2,0.8,0.2,0.8,-1,0,2,1,1,1,2,0,0.931901932,0.2,0.8,0.2,0.8,1,0.070527693,0.8,0.2,0,0,0,0,0,1,1
1,1,5,1,53,0.2,0.8,0.2,0.8,-1,0,2,1,1,1,1,-1,0.867408037,0.2,0.8,0.2,0.8,1,0.142245782,0.8,0.2,0,0,0,0,1,1,1
1,1,5,1,54,0.8,0.2,0.2,0.8,1,0,1,1,0,1,1,1,1.149180889,0.8,0.2,0.8,0.2,1,-0.139049418,0.2,0.8,0,0,1,1,0,1,0
1,1,5,1,55,0.8,0.2,0.2,0.8,-1,0,2,1,1,2,2,0,1.210470915,0.8,0.2,0.2,0.8,0,-0.19100947,0.2,0.8,0,0,1,1,0,0,0
1,1,5,1,56,0.8,0.2,0.2,0.8,1,0,2,1,0,1,1,1,1.247058868,0.8,0.2,0.8,0.2,1,-0.220787874,0.2,0.8,0,0,1,1,1,0,0
1,1,5,1,57,0.8,0.2,0.2,0.8,-1,0,2,1,0,2,1,-1,1.995077848,0.8,0.2,0.2,0.8,0,-0.690683071,0.2,0.8,0,0,1,1,1,0,1
1,1,5,1,58,0.8,0.2,0.2,0.8,-1,0,2,1,0,1,1,-1,1.318672895,0.8,0.2,0.8,0.2,1,-0.276625849,0.2,0.8,0,0,0,0,1,0,1
1,1,5,1,59,0.8,0.2,0.2,0.8,1,0,2,1,0,1,1,1,1.495290041,0.8,0.2,0.8,0.2,1,-0.402320195,0.2,0.8,0,0,1,1,1,1,1
1,1,5,1,60,0.2,0.8,0.2,0.8,-1,0,1,1,1,2,1,-1,1.055377007,0.2,0.8,0.8,0.2,0,-0.053898055,0.8,0.2,0,0,1,1,0,0,0
1,1,6,2,1,0.2,0.8,0.8,0.2,1,0,3,2,0,2,2,0,1.795922041,0.8,0.2,0.2,0.8,0,-0.585518562,0.2,0.8,0,0,0,0,0,1,0
1,1,6,2,2,0.2,0.8,0.8,0.2,1,0,3,2,0,1,1,1,1.040590048,0.8,0.2,0.8,0.2,1,-0.039787906,0.2,0.8,0,0,1,1,1,0,1
1,1,6,2,3,0.2,0.8,0.8,0.2,1,0,3,2,1,1,1,1,0.878118992,0.8,0.2,0.8,0.2,1,0.129973169,0.2,0.8,0,0,1,1,1,1,0
1,1,6,2,4,0.2,0.8,0.8,0.2,1,0,3,2,1,1,1,1,1.108215809,0.8,0.2,0.8,0.2,1,-0.102751343,0.2,0.8,0,0,1,1,1,1,1
1,1,6,2,5,0.2,0.8,0.8,0.2,1,0,4,1,1,1,2,0,1.248486042,0.2,0.8,0.2,0.8,1,-0.221931651,0.8,0.2,0,0,1,1,0,1,1
1,1,6,2,6,0.8,0.2,0.8,0.2,1,0,3,2,0,2,2,0,1.60292697,0.8,0.2,0.2,0.8,0,-0.471831314,0.2,0.8,0,0,0,0,0,0,0
1,1,6,2,7,0.8,0.2,0.8,0.2,-1,0,4,1,0,1,1,-1,2.547590971,0.8,0.2,0.8,0.2,1,-0.935148195,0.2,0.8,0,0,1,0,0,0,1
1,1,6,2,8,0.8,0.2,0.2,0.8,1,0,4,1,0,1,1,1,0.774748087,0.8,0.2,0.8,0.2,1,0.255217352,0.2,0.8,0,0,1,1,1,1,1
1,1,6,2,9,0.8,0.2,0.2,0.8,-1,0,4,1,1,2,2,0,1.078506947,0.8,0.2,0.2,0.8,0,-0.075577628,0.2,0.8,0,0,1,1,1,0,0
1,1,6,2,10,0.8,0.2,0.2,0.8,1,0,4,1,1,1,2,0,0.724373102,0.8,0.2,0.8,0.2,1,0.322448685,0.2,0.8,0,0,1,1,1,0,1
1,1,6,2,11,0.8,0.2,0.2,0.8,1,0,4,1,0,2,2,0,0.755774021,0.8,0.2,0.2,0.8,0,0.280012861,0.2,0.8,0,0,0,0,1,0,0
1,1,6,2,12,0.8,0.2,0.2,0.8,1,0,3,2,0,1,2,0,1.423263788,0.2,0.8,0.2,0.8,1,-0.352952677,0.8,0.2,0,0,1,1,0,0,1
1,1,6,2,13,0.8,0.2,0.2,0.8,1,0,4,1,1,2,1,1,2.862684011,0.8,0.2,0.2,0.8,0,-1.05175965,0.2,0.8,0,0,0,0,0,0,0
1,1,6,2,14,0.8,0.2,0.2,0.8,1,0,3,2,0,2,1,1,1.109112024,0.2,0.8,0.8,0.2,0,-0.103559717,0.8,0.2,0,0,0,0,0,1,0
1,1,6,2,15,0.8,0.2,0.2,0.8,1,0,3,2,1,2,1,1,0.841639042,0.2,0.8,0.8,0.2,0,0.172404048,0.8,0.2,0,0,0,0,1,1,0
1,1,6,2,16,0.8,0.2,0.2,0.8,1,0,4,1,0,2,2,0,1.187955856,0.8,0.2,0.2,0.8,0,-0.172234062,0.2,0.8,0,0,0,0,0,1,0
1,1,6,2,17,0.8,0.2,0.2,0.8,1,0,3,2,1,1,2,0,0.996458054,0.2,0.8,0.2,0.8,1,0.003548234,0.8,0.2,0,0,1,1,0,0,0
1,1,6,2,18,0.8,0.2,0.2,0.8,1,0,3,2,0,2,1,1,1.88685894,0.2,0.8,0.8,0.2,0,-0.63491351,0.8,0.2,0,0,0,0,1,0,0
1,1,6,2,19,0.8,0.2,0.2,0.8,-1,0,3,2,0,1,1,-1,1.76693511,0.2,0.8,0.2,0.8,1,-0.569246469,0.8,0.2,0,0,0,0,1,0,1
1,1,6,2,20,0.8,0.2,0.2,0.8,1,0,4,1,0,1,1,1,2.155412912,0.8,0.2,0.8,0.2,1,-0.767982312,0.2,0.8,0,0,1,1,0,1,1
1,1,6,2,21,0.8,0.2,0.2,0.8,1,0,3,2,0,1,1,1,1.537425995,0.2,0.8,0.2,0.8,1,-0.430109586,0.8,0.2,0,0,1,1,0,1,1
1,1,6,2,22,0.8,0.2,0.2,0.8,1,0,4,1,1,1,1,1,0.999428988,0.8,0.2,0.8,0.2,1,0.000571176,0.2,0.8,0,0,1,1,0,1,0
1,1,6,2,23,0.8,0.2,0.2,0.8,-1,0,4,1,0,2,2,0,0.998193026,0.8,0.2,0.2,0.8,0,0.001808609,0.2,0.8,0,0,1,1,1,0,0
1,1,6,2,24,0.8,0.2,0.2,0.8,1,0,4,1,1,1,1,1,1.169558048,0.8,0.2,0.8,0.2,1,-0.156625941,0.2,0.8,0,0,1,1,1,0,0
1,1,6,2,25,0.8,0.2,0.2,0.8,-1,0,3,2,0,2,1,-1,0.870567799,0.2,0.8,0.8,0.2,0,0.138609638,0.8,0.2,0,0,1,1,0,0,0
1,1,6,2,26,0.2,0.8,0.2,0.8,-1,0,4,1,0,1,2,0,2.062520981,0.2,0.8,0.2,0.8,1,-0.723929012,0.8,0.2,0,0,0,0,0,0,1
1,1,6,2,27,0.2,0.8,0.2,0.8,1,0,4,1,0,2,1,1,1.03995204,0.2,0.8,0.8,0.2,0,-0.039174596,0.8,0.2,0,0,0,0,1,0,1
1,1,6,2,28,0.2,0.8,0.2,0.8,1,0,3,2,1,2,1,1,1.124910831,0.2,0.8,0.8,0.2,0,-0.117703772,0.8,0.2,0,0,0,0,0,1,0
1,1,6,2,29,0.2,0.8,0.2,0.8,1,0,4,1,0,2,1,1,0.716972113,0.2,0.8,0.8,0.2,0,0.332718334,0.8,0.2,0,0,0,0,0,1,0
1,1,6,2,30,0.2,0.8,0.2,0.8,1,0,3,2,1,2,1,1,0.475839138,0.2,0.8,0.8,0.2,0,0.742675427,0.8,0.2,0,0,0,0,0,1,0
1,1,6,2,31,0.2,0.8,0.2,0.8,1,0,4,1,1,2,1,1,0.509364843,0.2,0.8,0.8,0.2,0,0.674590735,0.8,0.2,0,0,0,0,0,1,1
1,1,6,2,32,0.2,0.8,0.2,0.8,-1,0,3,2,0,1,2,0,0.613156796,0.2,0.8,0.2,0.8,1,0.489134592,0.8,0.2,0,0,0,0,0,0,0
1,1,6,2,33,0.2,0.8,0.2,0.8,-1,0,3,2,1,1,2,0,1.193479061,0.2,0.8,0.2,0.8,1,-0.176872623,0.8,0.2,0,0,0,0,1,1,0
1,1,6,2,34,0.2,0.8,0.2,0.8,-1,0,4,1,1,1,2,0,1.02166605,0.2,0.8,0.2,0.8,1,-0.021434677,0.8,0.2,0,0,0,0,0,1,1
1,1,6,2,35,0.2,0.8,0.2,0.8,-1,0,3,2,1,1,2,0,1.218996048,0.2,0.8,0.2,0.8,1,-0.198027608,0.8,0.2,0,0,0,0,0,1,1
1,1,6,2,36,0.2,0.8,0.2,0.8,-1,0,4,1,1,1,2,0,1.095284939,0.2,0.8,0.2,0.8,1,-0.091014548,0.8,0.2,0,0,0,0,0,1,1
1,1,6,2,37,0.2,0.8,0.2,0.8,-1,0,4,1,1,1,2,0,0.774637938,0.2,0.8,0.2,0.8,1,0.255359536,0.8,0.2,0,0,0,0,1,1,1
1,1,6,2,38,0.2,0.8,0.2,0.8,-1,0,4,1,1,1,2,0,0.750648022,0.2,0.8,0.2,0.8,1,0.286818417,0.8,0.2,0,0,0,0,1,1,1
1,1,6,2,39,0.2,0.8,0.2,0.8,1,0,3,2,1,2,1,1,0.976675987,0.2,0.8,0.8,0.2,0,0.023600322,0.8,0.2,0,0,0,0,0,0,1
1,1,6,2,40,0.2,0.8,0.2,0.8,-1,0,3,2,0,1,1,-1,0.905180931,0.2,0.8,0.2,0.8,1,0.099620431,0.8,0.2,0,0,0,0,1,0,0
1,1,6,2,41,0.2,0.8,0.2,0.8,-1,0,3,2,0,2,1,-1,1.820789814,0.2,0.8,0.8,0.2,0,-0.599270371,0.8,0.2,0,0,1,1,1,0,1
1,1,6,2,42,0.2,0.8,0.2,0.8,-1,0,4,1,0,1,2,0,2.510310888,0.2,0.8,0.2,0.8,1,-0.920406605,0.8,0.2,0,0,0,0,0,0,1
1,1,6,2,43,0.2,0.8,0.2,0.8,-1,0,3,2,1,1,2,0,1.072276831,0.2,0.8,0.2,0.8,1,-0.069784267,0.8,0.2,0,0,0,0,0,1,0
1,1,6,2,44,0.2,0.8,0.2,0.8,-1,0,4,1,0,1,2,0,0.945871115,0.2,0.8,0.2,0.8,1,0.055648962,0.8,0.2,0,0,0,0,0,1,0
1,1,6,2,45,0.2,0.8,0.2,0.8,-1,0,3,2,1,1,2,0,0.647088051,0.2,0.8,0.2,0.8,1,0.435272903,0.8,0.2,0,0,0,0,0,1,0
1,1,6,2,46,0.8,0.2,0.2,0.8,-1,0,4,1,1,1,1,-1,0.721750021,0.8,0.2,0.8,0.2,1,0.326076431,0.2,0.8,0,0,0,0,0,1,1
1,1,6,2,47,0.8,0.2,0.2,0.8,1,0,3,2,0,1,2,0,0.905138969,0.2,0.8,0.2,0.8,1,0.09966679,0.8,0.2,0,0,1,1,0,1,0
1,1,6,2,48,0.8,0.2,0.2,0.8,1,0,4,1,1,2,2,0,1.833120108,0.8,0.2,0.2,0.8,0,-0.606019492,0.2,0.8,0,0,0,0,0,0,0
1,1,6,2,49,0.8,0.2,0.2,0.8,-1,0,4,1,1,2,1,-1,0.899690866,0.8,0.2,0.2,0.8,0,0.105704056,0.2,0.8,0,0,1,1,1,1,1
1,1,6,2,50,0.8,0.2,0.2,0.8,1,0,3,2,1,2,1,1,1.348398924,0.2,0.8,0.8,0.2,0,-0.298917906,0.8,0.2,0,0,0,0,0,1,1
1,1,6,2,51,0.8,0.2,0.2,0.8,1,0,4,1,1,2,2,0,0.63173008,0.8,0.2,0.2,0.8,0,0.459293065,0.2,0.8,0,0,0,0,0,1,1
1,1,6,2,52,0.8,0.2,0.2,0.8,1,0,3,2,0,2,1,1,0.654992104,0.2,0.8,0.8,0.2,0,0.423132099,0.8,0.2,0,0,1,0,0,1,0
1,1,6,2,53,0.2,0.8,0.2,0.8,-1,0,3,2,1,1,2,0,1.250991106,0.2,0.8,0.2,0.8,1,-0.223936122,0.8,0.2,0,0,0,0,1,0,0
1,1,6,2,54,0.2,0.8,0.2,0.8,1,0,4,1,1,2,1,1,0.893667936,0.2,0.8,0.8,0.2,0,0.112421009,0.8,0.2,0,0,0,0,0,0,1
1,1,6,2,55,0.2,0.8,0.2,0.8,1,0,4,1,1,2,1,1,1.129667997,0.2,0.8,0.8,0.2,0,-0.121923782,0.8,0.2,0,0,0,0,1,1,1
1,1,6,2,56,0.2,0.8,0.2,0.8,1,0,3,2,0,2,1,1,0.757823944,0.2,0.8,0.8,0.2,0,0.277304184,0.8,0.2,0,0,0,0,0,1,0
1,1,6,2,57,0.2,0.8,0.2,0.8,-1,0,3,2,1,1,2,0,1.110671997,0.2,0.8,0.2,0.8,1,-0.104965235,0.8,0.2,0,0,0,0,1,0,0
1,1,6,2,58,0.2,0.8,0.2,0.8,-1,0,4,1,1,1,1,-1,1.437468052,0.2,0.8,0.2,0.8,1,-0.362883269,0.8,0.2,0,0,0,0,0,1,1
1,1,6,2,59,0.2,0.8,0.2,0.8,1,0,4,1,1,1,1,1,1.956590891,0.2,0.8,0.2,0.8,1,-0.671203617,0.8,0.2,0,0,1,1,1,1,1
1,1,6,2,60,0.2,0.8,0.8,0.2,-1,0,3,2,1,2,2,0,1.952471972,0.8,0.2,0.2,0.8,0,-0.669096247,0.2,0.8,0,0,1,1,0,0,1
1,1,7,1,1,0.2,0.8,0.2,0.8,1,0,1,1,0,1,2,0,1.293128014,0.2,0.8,0.2,0.8,1,-0.2570641,0.8,0.2,0,0,1,1,0,0,0
1,1,7,1,2,0.2,0.8,0.2,0.8,-1,0,1,1,1,1,2,0,1.328255892,0.2,0.8,0.2,0.8,1,-0.283866722,0.8,0.2,0,0,0,0,1,1,0
1,1,7,1,3,0.2,0.8,0.2,0.8,-1,0,2,1,0,1,2,0,1.301996946,0.2,0.8,0.2,0.8,1,-0.263899198,0.8,0.2,0,0,0,0,0,1,0
1,1,7,1,4,0.2,0.8,0.2,0.8,1,0,2,1,1,2,2,0,0.771293879,0.2,0.8,0.8,0.2,0,0.259685813,0.8,0.2,0,0,0,0,1,0,0
1,1,7,1,5,0.2,0.8,0.2,0.8,-1,0,1,1,0,1,2,0,2.102060795,0.2,0.8,0.2,0.8,1,-0.742918194,0.8,0.2,0,0,1,0,0,0,0
1,1,7,1,6,0.2,0.8,0.2,0.8,-1,0,2,1,1,1,1,-1,1.66318512,0.2,0.8,0.2,0.8,1,-0.508734511,0.8,0.2,0,0,0,0,0,1,0
1,1,7,1,7,0.2,0.8,0.2,0.8,-1,0,1,1,0,2,1,-1,2.470673084,0.2,0.8,0.8,0.2,0,-0.904490617,0.8,0.2,0,0,1,1,0,0,0
1,1,7,1,8,0.2,0.8,0.2,0.8,-1,0,1,1,0,1,1,-1,2.025914907,0.2,0.8,0.2,0.8,1,-0.706021405,0.8,0.2,0,0,0,0,1,0,1
1,1,7,1,9,0.2,0.8,0.2,0.8,1,0,2,1,1,2,2,0,1.772463083,0.2,0.8,0.8,0.2,0,-0.572370152,0.8,0.2,0,0,1,0,0,0,0
1,1,7,1,10,0.2,0.8,0.2,0.8,1,0,2,1,0,1,2,0,1.544641972,0.2,0.8,0.2,0.8,1,-0.43479215,0.8,0.2,0,0,1,1,1,0,0
1,1,7,1,11,0.2,0.8,0.2,0.8,-1,0,1,1,1,2,1,-1,1.870352983,0.2,0.8,0.8,0.2,0,-0.626127174,0.8,0.2,0,0,0,1,0,0,0
1,1,7,1,12,0.2,0.8,0.2,0.8,1,0,2,1,0,2,2,0,1.358566999,0.2,0.8,0.8,0.2,0,-0.306430467,0.8,0.2,0,0,0,0,0,1,0
1,1,7,1,13,0.2,0.8,0.2,0.8,-1,0,2,1,0,1,2,0,1.983529091,0.2,0.8,0.2,0.8,1,-0.684877627,0.8,0.2,0,0,1,0,1,0,1
1,1,7,1,14,0.2,0.8,0.2,0.8,-1,0,1,1,0,1,2,0,1.079686165,0.2,0.8,0.2,0.8,1,-0.076670411,0.8,0.2,0,0,0,0,0,1,1
1,1,7,1,15,0.8,0.2,0.2,0.8,-1,0,2,1,1,1,1,-1,0.710717201,0.8,0.2,0.8,0.2,1,0.341480676,0.2,0.8,0,0,0,0,0,1,0
1,1,7,1,16,0.8,0.2,0.2,0.8,1,0,1,1,1,2,2,0,0.893180132,0.8,0.2,0.2,0.8,0,0.112967003,0.2,0.8,0,0,1,0,0,0,1
1,1,7,1,17,0.8,0.2,0.2,0.8,-1,0,1,1,1,2,2,0,1.351866961,0.8,0.2,0.2,0.8,0,-0.301486571,0.2,0.8,0,0,1,1,1,1,1
1,1,7,1,18,0.8,0.2,0.2,0.8,-1,0,1,1,1,2,2,0,0.918699026,0.8,0.2,0.2,0.8,0,0.084796712,0.2,0.8,0,0,1,1,1,1,1
1,1,7,1,19,0.8,0.2,0.2,0.8,1,0,1,1,1,1,1,1,1.248739004,0.8,0.2,0.8,0.2,1,-0.222134245,0.2,0.8,0,0,1,1,1,0,1
1,1,7,1,20,0.8,0.2,0.2,0.8,1,0,1,1,1,1,1,1,0.850279093,0.8,0.2,0.8,0.2,1,0.162190639,0.2,0.8,0,0,1,1,1,1,1
1,1,7,1,21,0.8,0.2,0.2,0.8,1,0,1,1,0,1,2,0,0.7758708,0.8,0.2,0.8,0.2,1,0.253769267,0.2,0.8,0,0,1,1,1,1,0
1,1,7,1,22,0.8,0.2,0.2,0.8,1,0,1,1,0,2,2,0,1.03708601,0.8,0.2,0.2,0.8,0,-0.036414867,0.2,0.8,0,0,0,0,1,0,1
1,1,7,1,23,0.8,0.2,0.2,0.8,-1,0,1,1,0,2,2,0,1.604214191,0.8,0.2,0.2,0.8,0,-0.472634036,0.2,0.8,0,0,1,1,1,1,1
1,1,7,1,24,0.8,0.2,0.2,0.8,1,0,1,1,1,1,1,1,1.091729164,0.8,0.2,0.8,0.2,1,-0.087762828,0.2,0.8,0,0,1,1,1,0,0
1,1,7,1,25,0.8,0.2,0.2,0.8,1,0,2,1,1,1,1,1,1.220533133,0.8,0.2,0.8,0.2,1,-0.199287757,0.2,0.8,0,0,1,1,0,1,1
1,1,7,1,26,0.8,0.2,0.2,0.8,1,0,2,1,0,1,1,1,0.957540989,0.8,0.2,0.8,0.2,1,0.043386751,0.2,0.8,0,0,1,1,1,1,0
1,1,7,1,27,0.8,0.2,0.2,0.8,1,0,2,1,1,1,1,1,0.587213039,0.8,0.2,0.8,0.2,1,0.532367596,0.2,0.8,0,0,1,1,1,1,0
1,1,7,1,28,0.8,0.2,0.2,0.8,-1,0,1,1,1,1,1,-1,0.936097145,0.8,0.2,0.8,0.2,1,0.06603602,0.2,0.8,0,0,1,0,0,1,1
1,1,7,1,29,0.8,0.2,0.2,0.8,-1,0,2,1,0,2,1,-1,1.32375598,0.8,0.2,0.2,0.8,0,-0.280473135,0.2,0.8,0,0,1,1,0,0,0
1,1,7,1,30,0.8,0.2,0.2,0.8,-1,0,1,1,0,1,1,-1,2.408593178,0.8,0.2,0.8,0.2,1,-0.879042833,0.2,0.8,0,0,0,0,0,0,1
1,1,7,1,31,0.8,0.2,0.2,0.8,-1,0,2,1,0,1,2,0,1.980400085,0.8,0.2,0.8,0.2,1,-0.683298888,0.2,0.8,0,0,1,0,0,1,1
1,1,7,1,32,0.2,0.8,0.2,0.8,-1,0,1,1,1,1,2,0,2.146945,0.2,0.8,0.2,0.8,1,-0.764045901,0.8,0.2,0,0,0,0,0,1,0
1,1,7,1,33,0.2,0.8,0.2,0.8,-1,0,2,1,0,1,2,0,1.266335011,0.2,0.8,0.2,0.8,1,-0.23612691,0.8,0.2,0,0,0,0,0,1,0
1,1,7,1,34,0.2,0.8,0.2,0.8,1,0,2,1,1,2,1,1,1.330640793,0.2,0.8,0.8,0.2,0,-0.285660625,0.8,0.2,0,0,0,0,1,0,0
1,1,7,1,35,0.2,0.8,0.2,0.8,-1,0,2,1,0,1,2,0,1.014742851,0.2,0.8,0.2,0.8,1,-0.014635232,0.8,0.2,0,0,0,0,1,0,0
1,1,7,1,36,0.2,0.8,0.2,0.8,1,0,1,1,1,2,2,0,0.609415054,0.2,0.8,0.8,0.2,0,0.495255709,0.8,0.2,0,0,0,0,0,0,0
1,1,7,1,37,0.2,0.8,0.2,0.8,-1,0,2,1,1,1,1,-1,2.781116009,0.2,0.8,0.2,0.8,1,-1.022852289,0.8,0.2,0,0,1,0,0,0,1
1,1,7,1,38,0.2,0.8,0.2,0.8,-1,0,2,1,0,2,1,-1,1.263349056,0.2,0.8,0.8,0.2,0,-0.233766176,0.8,0.2,0,0,1,1,1,0,0
1,1,7,1,39,0.2,0.8,0.2,0.8,-1,0,2,1,0,1,2,0,2.139549971,0.2,0.8,0.2,0.8,1,-0.760595513,0.8,0.2,0,0,0,0,1,0,1
1,1,7,1,40,0.2,0.8,0.2,0.8,1,0,2,1,0,2,2,0,1.628457069,0.2,0.8,0.8,0.2,0,-0.487632983,0.8,0.2,0,0,0,0,1,0,1
1,1,7,1,41,0.2,0.8,0.2,0.8,-1,0,1,1,1,2,1,-1,1.251572132,0.2,0.8,0.8,0.2,0,-0.224400467,0.8,0.2,0,0,1,1,0,1,0
1,1,7,1,42,0.2,0.8,0.2,0.8,-1,0,2,1,0,1,2,0,1.545531034,0.2,0.8,0.2,0.8,1,-0.435367563,0.8,0.2,0,0,0,0,0,0,0
1,1,7,1,43,0.2,0.8,0.2,0.8,-1,0,2,1,1,1,2,0,1.145493984,0.2,0.8,0.2,0.8,1,-0.135835971,0.8,0.2,0,0,0,0,1,1,0
1,1,7,1,44,0.2,0.8,0.2,0.8,-1,0,2,1,1,1,2,0,0.91130805,0.2,0.8,0.2,0.8,1,0.092874294,0.8,0.2,0,0,0,0,1,1,1
1,1,7,1,45,0.2,0.8,0.2,0.8,-1,0,1,1,1,1,2,0,1.120028973,0.2,0.8,0.2,0.8,1,-0.113354553,0.8,0.2,0,0,0,0,0,1,1
1,1,7,1,46,0.2,0.8,0.2,0.8,-1,0,1,1,1,1,2,0,0.466402054,0.2,0.8,0.2,0.8,1,0.76270724,0.8,0.2,0,0,0,0,1,1,1
1,1,7,1,47,0.2,0.8,0.2,0.8,1,0,2,1,0,2,1,1,1.062864065,0.2,0.8,0.8,0.2,0,-0.060967213,0.8,0.2,0,0,0,0,0,0,0
1,1,7,1,48,0.2,0.8,0.2,0.8,-1,0,1,1,1,1,2,0,0.903441906,0.2,0.8,0.2,0.8,1,0.10154347,0.8,0.2,0,0,0,0,0,0,0
1,1,7,1,49,0.2,0.8,0.2,0.8,-1,0,2,1,1,1,2,0,0.659587145,0.2,0.8,0.2,0.8,1,0.416141178,0.8,0.2,0,0,0,0,0,1,1
1,1,7,1,50,0.2,0.8,0.2,0.8,-1,0,2,1,0,1,1,-1,0.941741943,0.2,0.8,0.2,0.8,1,0.060023987,0.8,0.2,0,0,0,0,1,1,0
1,1,7,1,51,0.2,0.8,0.2,0.8,1,0,2,1,1,1,2,0,1.811439037,0.2,0.8,0.2,0.8,1,-0.594121578,0.8,0.2,0,0,1,1,1,1,0
1,1,7,1,52,0.2,0.8,0.2,0.8,-1,0,2,1,0,1,2,0,1.555293798,0.2,0.8,0.2,0.8,1,-0.441664466,0.8,0.2,0,0,0,0,1,1,0
1,1,7,1,53,0.8,0.2,0.2,0.8,-1,0,1,1,0,1,1,-1,0.655622005,0.8,0.2,0.8,0.2,1,0.422170867,0.2,0.8,0,0,0,0,0,1,1
1,1,7,1,54,0.8,0.2,0.2,0.8,-1,0,2,1,1,2,2,0,1.03195715,0.8,0.2,0.2,0.8,0,-0.031457144,0.2,0.8,0,0,1,1,0,0,0
1,1,7,1,55,0.8,0.2,0.2,0.8,1,0,1,1,0,1,2,0,1.180965185,0.8,0.2,0.8,0.2,1,-0.166332058,0.2,0.8,0,0,1,1,0,0,0
1,1,7,1,56,0.8,0.2,0.2,0.8,1,0,1,1,0,2,2,0,1.179803133,0.8,0.2,0.2,0.8,0,-0.165347588,0.2,0.8,0,0,0,0,1,0,1
1,1,7,1,57,0.8,0.2,0.2,0.8,1,0,2,1,1,1,1,1,1.720150948,0.8,0.2,0.8,0.2,1,-0.542412047,0.2,0.8,0,0,1,1,0,0,0
1,1,7,1,58,0.8,0.2,0.2,0.8,1,0,1,1,1,1,2,0,0.875095129,0.8,0.2,0.8,0.2,1,0.13342268,0.2,0.8,0,0,1,1,0,1,1
1,1,7,1,59,0.8,0.2,0.2,0.8,1,0,1,1,1,2,2,0,0.976067066,0.8,0.2,0.2,0.8,0,0.02422398,0.2,0.8,0,0,0,0,1,0,1
1,1,7,1,60,0.8,0.2,0.2,0.8,-1,0,1,1,0,2,2,0,1.339357853,0.8,0.2,0.2,0.8,0,-0.292190285,0.2,0.8,0,0,1,1,1,1,0
1,1,8,2,1,0.2,0.8,0.2,0.8,1,0,4,1,1,2,1,1,0.892899036,0.2,0.8,0.8,0.2,0,0.113281766,0.8,0.2,0,0,1,0,0,1,0
1,1,8,2,2,0.2,0.8,0.2,0.8,-1,0,4,1,0,1,2,0,0.937802076,0.2,0.8,0.2,0.8,1,0.064216358,0.8,0.2,0,0,0,0,1,0,0
1,1,8,2,3,0.2,0.8,0.2,0.8,1,0,4,1,1,2,1,1,0.506572008,0.2,0.8,0.8,0.2,0,0.680088797,0.8,0.2,0,0,0,0,1,0,0
1,1,8,2,4,0.2,0.8,0.2,0.8,-1,0,4,1,0,1,2,0,0.667316914,0.2,0.8,0.2,0.8,1,0.404490213,0.8,0.2,0,0,0,0,1,0,0
1,1,8,2,5,0.2,0.8,0.2,0.8,-1,0,3,2,0,1,2,0,1.360953093,0.2,0.8,0.2,0.8,1,-0.308185258,0.8,0.2,0,0,0,0,0,1,1
1,1,8,2,6,0.2,0.8,0.2,0.8,1,0,4,1,1,2,1,1,0.825708151,0.2,0.8,0.8,0.2,0,0.191513896,0.8,0.2,0,0,0,0,0,0,0
1,1,8,2,7,0.2,0.8,0.2,0.8,1,0,3,2,0,2,1,1,1.00386095,0.2,0.8,0.8,0.2,0,-0.003853516,0.8,0.2,0,0,0,0,0,1,0
1,1,8,2,8,0.2,0.8,0.2,0.8,-1,0,3,2,0,1,2,0,0.852189064,0.2,0.8,0.2,0.8,1,0.159946871,0.8,0.2,0,0,0,0,1,0,1
1,1,8,2,9,0.2,0.8,0.2,0.8,-1,0,3,2,0,1,1,-1,0.61420393,0.2,0.8,0.2,0.8,1,0.487428273,0.8,0.2,0,0,0,0,1,1,1
1,1,8,2,10,0.2,0.8,0.2,0.8,-1,0,3,2,1,2,1,-1,0.895511866,0.2,0.8,0.8,0.2,0,0.110359807,0.8,0.2,0,0,1,1,1,0,0
1,1,8,2,11,0.2,0.8,0.2,0.8,-1,0,4,1,1,1,1,-1,1.861690044,0.2,0.8,0.2,0.8,1,-0.621484701,0.8,0.2,0,0,0,0,0,0,1
1,1,8,2,12,0.2,0.8,0.2,0.8,1,0,3,2,1,1,2,0,2.158004999,0.2,0.8,0.2,0.8,1,-0.769184183,0.8,0.2,0,0,1,1,0,1,1
1,1,8,2,13,0.2,0.8,0.2,0.8,-1,0,3,2,0,1,2,0,1.194623947,0.2,0.8,0.2,0.8,1,-0.177831447,0.8,0.2,0,0,0,0,1,1,0
1,1,8,2,14,0.2,0.8,0.2,0.8,-1,0,3,2,0,1,1,-1,0.659574032,0.2,0.8,0.2,0.8,1,0.416161059,0.8,0.2,0,0,0,0,1,1,1
1,1,8,2,15,0.2,0.8,0.2,0.8,-1,0,4,1,1,2,1,-1,2.687263012,0.2,0.8,0.8,0.2,0,-0.988523208,0.8,0.2,0,0,1,1,0,0,0
1,1,8,2,16,0.2,0.8,0.2,0.8,1,0,3,2,1,2,2,0,1.692775965,0.2,0.8,0.8,0.2,0,-0.526369764,0.8,0.2,0,0,0,0,0,1,1
1,1,8,2,17,0.2,0.8,0.2,0.8,-1,0,4,1,0,2,1,-1,0.877713919,0.2,0.8,0.8,0.2,0,0.130434571,0.8,0.2,0,0,1,1,0,1,0
1,1,8,2,18,0.2,0.8,0.2,0.8,1,0,4,1,0,2,2,0,1.464825869,0.2,0.8,0.8,0.2,0,-0.381736374,0.8,0.2,0,0,0,0,1,1,1
1,1,8,2,19,0.2,0.8,0.2,0.8,-1,0,3,2,0,1,2,0,1.222447872,0.2,0.8,0.2,0.8,1,-0.200855301,0.8,0.2,0,0,1,0,0,0,1
1,1,8,2,20,0.2,0.8,0.2,0.8,-1,0,3,2,0,1,2,0,1.754634142,0.2,0.8,0.2,0.8,1,-0.562260369,0.8,0.2,0,0,0,0,1,1,1
1,1,8,2,21,0.2,0.8,0.2,0.8,-1,0,3,2,0,1,2,0,0.894251823,0.2,0.8,0.2,0.8,1,0.111767862,0.8,0.2,0,0,0,0,1,1,1
1,1,8,2,22,0.2,0.8,0.2,0.8,-1,0,3,2,0,1,1,-1,0.984841108,0.2,0.8,0.2,0.8,1,0.015274962,0.8,0.2,0,0,0,0,1,1,1
1,1,8,2,23,0.2,0.8,0.2,0.8,-1,0,4,1,0,2,1,-1,2.222803116,0.2,0.8,0.8,0.2,0,-0.798769064,0.8,0.2,0,0,1,1,0,0,1
1,1,8,2,24,0.8,0.2,0.2,0.8,-1,0,4,1,0,1,1,-1,2.409080982,0.8,0.2,0.8,0.2,1,-0.87924534,0.2,0.8,0,0,0,0,1,0,1
1,1,8,2,25,0.8,0.2,0.2,0.8,-1,0,3,2,0,2,1,-1,2.500780106,0.2,0.8,0.8,0.2,0,-0.916602725,0.8,0.2,0,0,1,1,0,0,1
1,1,8,2,26,0.8,0.2,0.2,0.8,-1,0,3,2,1,1,2,0,0.953145027,0.2,0.8,0.2,0.8,1,0.047988207,0.8,0.2,0,0,0,0,1,0,0
1,1,8,2,27,0.8,0.2,0.2,0.8,1,0,3,2,0,2,1,1,0.637337923,0.2,0.8,0.8,0.2,0,0.450455273,0.8,0.2,0,0,0,0,1,0,0
1,1,8,2,28,0.8,0.2,0.2,0.8,-1,0,3,2,0,1,2,0,1.237881184,0.2,0.8,0.2,0.8,1,-0.213401195,0.8,0.2,0,0,0,0,1,0,1
1,1,8,2,29,0.8,0.2,0.2,0.8,1,0,3,2,0,2,2,0,1.995309114,0.2,0.8,0.8,0.2,0,-0.690798983,0.8,0.2,0,0,0,0,1,0,1
1,1,8,2,30,0.8,0.2,0.2,0.8,-1,0,3,2,1,2,1,-1,0.821092129,0.2,0.8,0.8,0.2,0,0.197119961,0.8,0.2,0,0,1,1,1,1,0
1,1,8,2,31,0.2,0.8,0.2,0.8,-1,0,3,2,0,2,1,-1,2.495062113,0.2,0.8,0.8,0.2,0,-0.914313624,0.8,0.2,0,0,0,1,1,1,0
1,1,8,2,32,0.2,0.8,0.2,0.8,-1,0,3,2,1,1,2,0,0.851252079,0.2,0.8,0.2,0.8,1,0.161046979,0.8,0.2,0,0,0,0,1,0,0
1,1,8,2,33,0.2,0.8,0.2,0.8,-1,0,4,1,1,1,2,0,1.534827948,0.2,0.8,0.2,0.8,1,-0.428418289,0.8,0.2,0,0,0,0,0,1,1
1,1,8,2,34,0.2,0.8,0.2,0.8,-1,0,4,1,1,1,2,0,0.781472921,0.2,0.8,0.2,0.8,1,0.246574779,0.8,0.2,0,0,0,0,1,1,1
1,1,8,2,35,0.2,0.8,0.2,0.8,-1,0,4,1,0,1,2,0,0.822802067,0.2,0.8,0.2,0.8,1,0.195039609,0.8,0.2,0,0,0,0,1,1,0
1,1,8,2,36,0.2,0.8,0.2,0.8,1,0,3,2,0,2,2,0,1.61316514,0.2,0.8,0.8,0.2,0,-0.478198175,0.8,0.2,0,0,0,0,0,0,1
1,1,8,2,37,0.2,0.8,0.2,0.8,1,0,4,1,0,1,1,1,1.089168072,0.2,0.8,0.2,0.8,1,-0.085414168,0.8,0.2,0,0,1,1,0,0,1
1,1,8,2,38,0.2,0.8,0.2,0.8,-1,0,3,2,1,2,1,-1,2.04426384,0.2,0.8,0.8,0.2,0,-0.715037744,0.8,0.2,0,0,1,1,0,0,0
1,1,8,2,39,0.2,0.8,0.2,0.8,-1,0,3,2,0,1,2,0,1.112404108,0.2,0.8,0.2,0.8,1,-0.106523536,0.8,0.2,0,0,0,0,1,0,0
1,1,8,2,40,0.2,0.8,0.2,0.8,-1,0,4,1,1,1,2,0,0.92125392,0.2,0.8,0.2,0.8,1,0.082019581,0.8,0.2,0,0,0,0,0,1,0
1,1,8,2,41,0.2,0.8,0.2,0.8,1,0,3,2,1,2,1,1,1.398409843,0.2,0.8,0.8,0.2,0,-0.335335765,0.8,0.2,0,0,0,0,0,0,1
1,1,8,2,42,0.8,0.2,0.2,0.8,1,0,3,2,1,2,2,0,0.625380993,0.2,0.8,0.8,0.2,0,0.469394226,0.8,0.2,0,0,0,0,1,1,1
1,1,8,2,43,0.8,0.2,0.2,0.8,-1,0,4,1,1,2,1,-1,1.063323975,0.8,0.2,0.2,0.8,0,-0.061399827,0.2,0.8,0,0,1,1,0,1,1
1,1,8,2,44,0.8,0.2,0.2,0.8,1,0,3,2,0,2,2,0,0.868957043,0.2,0.8,0.8,0.2,0,0.140461588,0.8,0.2,0,0,0,0,0,1,0
1,1,8,2,45,0.8,0.2,0.2,0.8,-1,0,4,1,1,2,2,0,1.889328957,0.8,0.2,0.2,0.8,0,-0.636221717,0.2,0.8,0,0,1,1,0,1,0
1,1,8,2,46,0.8,0.2,0.2,0.8,1,0,4,1,1,1,1,1,0.855574846,0.8,0.2,0.8,0.2,1,0.155981701,0.2,0.8,0,0,1,1,1,0,1
1,1,8,2,47,0.8,0.2,0.2,0.8,-1,0,3,2,0,2,1,-1,0.743554115,0.2,0.8,0.8,0.2,0,0.296313731,0.8,0.2,0,0,1,1,0,0,0
1,1,8,2,48,0.8,0.2,0.2,0.8,1,0,3,2,1,2,1,1,0.845108032,0.2,0.8,0.8,0.2,0,0.168290811,0.8,0.2,0,0,0,0,1,1,0
1,1,8,2,49,0.8,0.2,0.2,0.8,1,0,4,1,1,2,1,1,0.549924135,0.8,0.2,0.2,0.8,0,0.597974946,0.2,0.8,0,0,0,0,0,1,1
1,1,8,2,50,0.8,0.2,0.2,0.8,1,0,4,1,1,2,1,1,0.352543831,0.8,0.2,0.2,0.8,0,1.042580322,0.2,0.8,0,0,0,0,1,1,1
1,1,8,2,51,0.8,0.2,0.2,0.8,1,0,4,1,1,2,2,0,0.330469131,0.8,0.2,0.2,0.8,0,1.107242024,0.2,0.8,0,0,0,0,1,1,1
1,1,8,2,52,0.8,0.2,0.2,0.8,-1,0,4,1,1,2,2,0,1.251852036,0.8,0.2,0.2,0.8,0,-0.224624083,0.2,0.8,0,0,1,1,1,1,1
1,1,8,2,53,0.8,0.2,0.2,0.8,-1,0,4,1,1,2,2,0,0.79381299,0.8,0.2,0.2,0.8,0,0.230907374,0.2,0.8,0,0,1,1,1,1,1
1,1,8,2,54,0.8,0.2,0.2,0.8,-1,0,4,1,0,2,2,0,0.667201996,0.8,0.2,0.2,0.8,0,0.404662437,0.2,0.8,0,0,1,1,1,1,0
1,1,8,2,55,0.8,0.2,0.2,0.8,1,0,4,1,0,1,1,1,1.30284214,0.8,0.2,0.8,0.2,1,-0.26454814,0.2,0.8,0,0,1,1,1,0,1
1,1,8,2,56,0.8,0.2,0.2,0.8,1,0,4,1,0,1,1,1,0.901432037,0.8,0.2,0.8,0.2,1,0.103770628,0.2,0.8,0,0,1,1,1,1,1
1,1,8,2,57,0.8,0.2,0.2,0.8,1,0,3,2,1,2,2,0,0.968920946,0.2,0.8,0.8,0.2,0,0.031572253,0.8,0.2,0,0,1,0,0,0,0
1,1,8,2,58,0.8,0.2,0.2,0.8,1,0,4,1,0,2,2,0,2.860459089,0.8,0.2,0.2,0.8,0,-1.050982133,0.2,0.8,0,0,1,0,0,1,0
1,1,8,2,59,0.8,0.2,0.2,0.8,-1,0,4,1,0,2,2,0,0.969295979,0.8,0.2,0.2,0.8,0,0.031185266,0.2,0.8,0,0,1,1,1,1,1
1,1,8,2,60,0.8,0.2,0.2,0.8,1,0,4,1,1,1,1,1,0.998487949,0.8,0.2,0.8,0.2,1,0.001513195,0.2,0.8,0,0,1,1,1,0,0
2,2,1,2,1,0.8,0.2,0.2,0.8,-1,0,4,1,1,1,1,-1,1.487088919,0.8,0.2,0.8,0.2,1,-0.396820463,0.2,0.8,0,1,1,0,1,1,1
2,2,1,2,2,0.8,0.2,0.2,0.8,1,0,4,1,0,2,2,0,1.256900072,0.8,0.2,0.2,0.8,0,-0.228648429,0.2,0.8,0,1,1,0,1,0,0
2,2,1,2,3,0.8,0.2,0.2,0.8,1,0,4,1,1,2,2,0,1.517421007,0.8,0.2,0.2,0.8,0,-0.417012188,0.2,0.8,0,1,1,0,1,1,0
2,2,1,2,4,0.8,0.2,0.2,0.8,1,0,4,1,1,1,1,1,1.11557889,0.8,0.2,0.8,0.2,1,-0.109373454,0.2,0.8,0,1,1,1,1,0,1
2,2,1,2,5,0.8,0.2,0.2,0.8,-1,0,3,2,0,1,2,0,1.798321962,0.2,0.8,0.2,0.8,1,-0.586853987,0.8,0.2,0,1,1,0,0,1,0
2,2,1,2,6,0.8,0.2,0.2,0.8,1,0,4,1,1,2,2,0,2.066586971,0.8,0.2,0.2,0.8,0,-0.72589844,0.2,0.8,0,1,0,0,0,0,0
2,2,1,2,7,0.8,0.2,0.2,0.8,1,0,3,2,1,2,1,1,1.281762838,0.2,0.8,0.8,0.2,0,-0.248236348,0.8,0.2,0,1,1,0,0,1,1
2,2,1,2,8,0.8,0.2,0.8,0.2,-1,0,4,1,0,1,1,-1,1.813531876,0.8,0.2,0.8,0.2,1,-0.595276256,0.2,0.8,0,1,0,0,0,0,0
2,2,1,2,9,0.8,0.2,0.8,0.2,1,0,3,2,1,2,2,0,3.078118086,0.8,0.2,0.2,0.8,0,-1.124318399,0.2,0.8,0,1,1,0,0,0,0
2,2,1,2,10,0.8,0.2,0.8,0.2,-1,0,4,1,0,1,2,0,2.298395872,0.8,0.2,0.8,0.2,1,-0.832211433,0.2,0.8,0,1,1,0,0,0,0
2,2,1,2,11,0.8,0.2,0.8,0.2,1,0,4,1,0,2,2,0,2.219642162,0.8,0.2,0.2,0.8,0,-0.797345995,0.2,0.8,0,1,0,0,1,0,1
2,2,1,2,12,0.8,0.2,0.8,0.2,1,0,3,2,0,2,2,0,1.831227064,0.8,0.2,0.2,0.8,0,-0.604986269,0.2,0.8,0,1,1,0,0,1,1
2,2,1,2,13,0.8,0.2,0.8,0.2,-1,0,4,1,1,2,2,0,2.125733137,0.8,0.2,0.2,0.8,0,-0.754116749,0.2,0.8,0,1,1,1,0,1,0
2,2,1,2,14,0.8,0.2,0.8,0.2,-1,0,4,1,1,1,1,-1,3.05973196,0.8,0.2,0.8,0.2,1,-1.118327317,0.2,0.8,0,1,1,0,1,0,1
2,2,1,2,15,0.8,0.2,0.8,0.2,1,0,3,2,0,2,2,0,2.306859016,0.8,0.2,0.2,0.8,0,-0.835886866,0.2,0.8,0,1,1,0,0,0,0
2,2,1,2,16,0.8,0.2,0.8,0.2,-1,0,3,2,0,2,1,-1,1.968403101,0.8,0.2,0.2,0.8,0,-0.677222605,0.2,0.8,0,1,1,1,1,1,1
2,2,1,2,17,0.8,0.2,0.8,0.2,1,0,3,2,1,1,1,1,2.857789993,0.8,0.2,0.8,0.2,1,-1.050048597,0.2,0.8,0,1,0,1,1,0,0
2,2,1,2,18,0.8,0.2,0.8,0.2,1,0,4,1,0,1,1,1,1.884849072,0.8,0.2,0.8,0.2,1,-0.63384775,0.2,0.8,0,1,1,1,0,1,0
2,2,1,2,19,0.8,0.2,0.8,0.2,1,0,4,1,0,1,1,1,1.13726902,0.8,0.2,0.8,0.2,1,-0.128629792,0.2,0.8,0,1,1,1,1,1,1
2,2,1,2,20,0.8,0.2,0.8,0.2,1,0,4,1,1,1,1,1,1.407188892,0.8,0.2,0.8,0.2,1,-0.341594021,0.2,0.8,0,1,1,1,1,1,0
2,2,1,2,21,0.8,0.2,0.8,0.2,-1,0,4,1,1,2,1,-1,3.639975071,0.8,0.2,0.2,0.8,0,-1.291976833,0.2,0.8,0,1,1,1,1,0,1
2,2,1,2,22,0.8,0.2,0.8,0.2,1,0,3,2,0,1,1,1,2.832901955,0.8,0.2,0.8,0.2,1,-1.041301612,0.2,0.8,0,1,0,1,0,0,0
2,2,1,2,23,0.8,0.2,0.8,0.2,-1,0,3,2,0,2,1,-1,2.038861036,0.8,0.2,0.2,0.8,0,-0.712391336,0.2,0.8,0,1,1,1,1,0,1
2,2,1,2,24,0.8,0.2,0.8,0.2,-1,0,3,2,0,1,1,-1,3.838352919,0.8,0.2,0.8,0.2,1,-1.345043347,0.2,0.8,0,1,0,0,1,0,1
2,2,1,2,25,0.8,0.2,0.8,0.2,1,0,4,1,0,2,2,0,2.383296013,0.8,0.2,0.2,0.8,0,-0.868484409,0.2,0.8,0,1,1,0,0,0,1
2,2,1,2,26,0.8,0.2,0.8,0.2,1,0,4,1,1,1,1,1,2.074378014,0.8,0.2,0.8,0.2,1,-0.729661356,0.2,0.8,0,1,1,1,1,0,0
2,2,1,2,27,0.8,0.2,0.8,0.2,1,0,4,1,1,1,1,1,1.207464933,0.8,0.2,0.8,0.2,1,-0.188523065,0.2,0.8,0,1,1,1,1,1,1
2,2,1,2,28,0.8,0.2,0.8,0.2,1,0,3,2,0,2,2,0,1.726400137,0.8,0.2,0.2,0.8,0,-0.546038395,0.2,0.8,0,1,1,0,0,0,0
2,2,1,2,29,0.8,0.2,0.8,0.2,1,0,4,1,1,2,2,0,1.613718033,0.8,0.2,0.2,0.8,0,-0.478540854,0.2,0.8,0,1,1,0,0,1,0
2,2,1,2,30,0.8,0.2,0.8,0.2,-1,0,3,2,1,2,2,0,2.453662872,0.8,0.2,0.2,0.8,0,-0.897581958,0.2,0.8,0,1,1,1,0,1,1
2,2,1,2,31,0.8,0.2,0.8,0.2,-1,0,3,2,1,2,2,0,1.66537714,0.8,0.2,0.2,0.8,0,-0.510051608,0.2,0.8,0,1,1,1,1,1,1
2,2,1,2,32,0.8,0.2,0.8,0.2,1,0,4,1,0,1,1,1,1.406182051,0.8,0.2,0.8,0.2,1,-0.340878266,0.2,0.8,0,1,1,1,0,0,0
2,2,1,2,33,0.8,0.2,0.8,0.2,-1,0,3,2,0,2,2,0,1.954442024,0.8,0.2,0.2,0.8,0,-0.670104743,0.2,0.8,0,1,1,1,0,0,1
2,2,1,2,34,0.8,0.2,0.8,0.2,1,0,3,2,0,1,2,0,1.68704319,0.8,0.2,0.8,0.2,1,-0.522977405,0.2,0.8,0,1,1,1,1,0,1
2,2,1,2,35,0.8,0.2,0.8,0.2,-1,0,3,2,0,2,1,-1,2.798919916,0.8,0.2,0.2,0.8,0,-1.029233599,0.2,0.8,0,1,0,1,1,0,1
2,2,1,2,36,0.8,0.2,0.8,0.2,1,0,3,2,0,1,1,1,2.683899879,0.8,0.2,0.8,0.2,1,-0.987270916,0.2,0.8,0,1,0,1,1,0,1
2,2,1,2,37,0.8,0.2,0.8,0.2,1,0,4,1,0,1,1,1,1.312801123,0.8,0.2,0.8,0.2,1,-0.272163116,0.2,0.8,0,1,1,1,0,1,1
2,2,1,2,38,0.8,0.2,0.8,0.2,1,0,3,2,0,1,1,1,1.31231904,0.8,0.2,0.8,0.2,1,-0.271795832,0.2,0.8,0,1,1,1,0,1,1
2,2,1,2,39,0.8,0.2,0.8,0.2,1,0,3,2,1,1,1,1,1.095000982,0.8,0.2,0.8,0.2,1,-0.09075526,0.2,0.8,0,1,1,1,1,1,0
2,2,1,2,40,0.8,0.2,0.8,0.2,1,0,3,2,0,1,1,1,0.95281601,0.8,0.2,0.8,0.2,1,0.048333458,0.2,0.8,0,1,1,1,1,1,0
2,2,1,2,41,0.8,0.2,0.8,0.2,1,0,3,2,1,1,2,0,1.412311077,0.8,0.2,0.8,0.2,1,-0.345227424,0.2,0.8,0,1,1,1,1,1,0
2,2,1,2,42,0.8,0.2,0.8,0.2,-1,0,3,2,0,1,1,-1,1.989717007,0.8,0.2,0.8,0.2,1,-0.687992421,0.2,0.8,0,1,0,0,1,1,0
2,2,1,2,43,0.8,0.2,0.8,0.2,-1,0,4,1,0,2,2,0,3.049968958,0.8,0.2,0.2,0.8,0,-1.115131413,0.2,0.8,0,1,1,1,0,0,1
2,2,1,2,44,0.8,0.2,0.8,0.2,1,0,4,1,0,1,1,1,2.802597046,0.8,0.2,0.8,0.2,1,-1.030546504,0.2,0.8,0,1,1,1,1,0,1
2,2,1,2,45,0.8,0.2,0.8,0.2,1,0,3,2,1,1,1,1,2.169264078,0.8,0.2,0.8,0.2,1,-0.774387976,0.2,0.8,0,1,1,1,0,1,0
2,2,1,2,46,0.8,0.2,0.2,0.8,-1,0,3,2,1,2,1,-1,1.294728994,0.2,0.8,0.8,0.2,0,-0.258301402,0.8,0.2,0,1,1,1,1,0,1
2,2,1,2,47,0.8,0.2,0.2,0.8,1,0,4,1,1,1,1,1,3.858004808,0.8,0.2,0.8,0.2,1,-1.350150161,0.2,0.8,0,1,0,1,0,0,1
2,2,1,2,48,0.2,0.8,0.2,0.8,1,0,3,2,1,2,1,1,2.440559864,0.2,0.8,0.8,0.2,0,-0.892227465,0.8,0.2,0,1,1,0,0,0,1
2,2,1,2,49,0.2,0.8,0.2,0.8,1,0,4,1,1,2,1,1,2.329949856,0.2,0.8,0.8,0.2,0,-0.845846746,0.8,0.2,0,1,0,0,0,1,1
2,2,1,2,50,0.2,0.8,0.2,0.8,1,0,3,2,0,2,2,0,1.008157969,0.2,0.8,0.8,0.2,0,-0.008124872,0.8,0.2,0,1,0,0,0,1,0
2,2,1,2,51,0.2,0.8,0.2,0.8,-1,0,4,1,1,1,2,0,2.660078049,0.2,0.8,0.2,0.8,1,-0.978355464,0.8,0.2,0,1,1,0,0,0,0
2,2,1,2,52,0.2,0.8,0.2,0.8,1,0,4,1,0,2,1,1,2.752948999,0.2,0.8,0.8,0.2,0,-1.012672701,0.8,0.2,0,1,0,0,1,0,0
2,2,1,2,53,0.2,0.8,0.2,0.8,-1,0,4,1,0,1,1,-1,1.233474016,0.2,0.8,0.2,0.8,1,-0.209834592,0.8,0.2,0,1,0,0,1,0,1
2,2,1,2,54,0.2,0.8,0.2,0.8,1,0,3,2,1,2,1,1,2.005518198,0.2,0.8,0.8,0.2,0,-0.69590248,0.8,0.2,0,1,1,0,0,0,0
2,2,1,2,55,0.2,0.8,0.2,0.8,1,0,3,2,0,2,1,1,0.961694002,0.2,0.8,0.8,0.2,0,0.039058964,0.8,0.2,0,1,0,0,1,1,0
2,2,1,2,56,0.2,0.8,0.2,0.8,-1,0,3,2,0,1,2,0,1.505138874,0.2,0.8,0.2,0.8,1,-0.408885169,0.8,0.2,0,1,0,0,1,0,1
2,2,1,2,57,0.8,0.2,0.2,0.8,-1,0,4,1,0,1,1,-1,1.170950174,0.8,0.2,0.8,0.2,1,-0.157815534,0.2,0.8,0,1,0,0,0,1,1
2,2,1,2,58,0.8,0.2,0.8,0.2,-1,0,3,2,1,1,1,-1,3.338340998,0.8,0.2,0.8,0.2,1,-1.205473976,0.2,0.8,0,1,1,0,0,1,0
2,2,1,2,59,0.8,0.2,0.8,0.2,-1,0,4,1,0,2,2,0,1.728484869,0.8,0.2,0.2,0.8,0,-0.547245227,0.2,0.8,0,1,1,1,0,0,0
2,2,1,2,60,0.8,0.2,0.8,0.2,1,0,4,1,1,2,2,0,1.942785978,0.8,0.2,0.2,0.8,0,-0.664123014,0.2,0.8,0,1,1,0,1,1,0
2,2,2,1,1,0.2,0.8,0.8,0.2,-1,0,2,1,0,2,2,0,2.116943836,0.2,0.8,0.8,0.2,0,-0.749973462,0.8,0.2,0,1,1,1,0,1,0
2,2,2,1,2,0.2,0.8,0.8,0.2,-1,0,2,1,1,2,1,-1,2.11382103,0.2,0.8,0.8,0.2,0,-0.748497224,0.8,0.2,0,1,1,1,1,1,0
2,2,2,1,3,0.2,0.8,0.8,0.2,-1,0,1,1,0,1,2,0,2.034734964,0.2,0.8,0.2,0.8,1,-0.710365572,0.8,0.2,0,1,0,0,0,0,0
2,2,2,1,4,0.2,0.8,0.8,0.2,1,0,2,1,1,2,2,0,1.589752197,0.2,0.8,0.8,0.2,0,-0.463578153,0.8,0.2,0,1,0,0,0,0,0
2,2,2,1,5,0.2,0.8,0.8,0.2,1,0,2,1,1,1,1,1,2.306222916,0.2,0.8,0.2,0.8,1,-0.835611085,0.8,0.2,0,1,1,1,1,0,1
2,2,2,1,6,0.2,0.8,0.8,0.2,1,0,1,1,1,1,2,0,1.859477043,0.2,0.8,0.2,0.8,1,-0.620295289,0.8,0.2,0,1,1,1,0,1,1
2,2,2,1,7,0.2,0.8,0.8,0.2,-1,0,2,1,0,2,1,-1,1.642438889,0.2,0.8,0.8,0.2,0,-0.496182264,0.8,0.2,0,1,0,1,0,0,0
2,2,2,1,8,0.2,0.8,0.8,0.2,1,0,1,1,0,2,1,1,2.035580158,0.2,0.8,0.8,0.2,0,-0.710780868,0.8,0.2,0,1,0,0,0,1,1
2,2,2,1,9,0.2,0.8,0.8,0.2,-1,0,1,1,1,1,2,0,1.482990026,0.2,0.8,0.2,0.8,1,-0.394060338,0.8,0.2,0,1,0,0,1,0,0
2,2,2,1,10,0.2,0.8,0.8,0.2,-1,0,2,1,1,1,2,0,1.245639086,0.2,0.8,0.2,0.8,1,-0.21964872,0.8,0.2,0,1,0,0,0,1,1
2,2,2,1,11,0.2,0.8,0.8,0.2,-1,0,2,1,0,1,1,-1,2.345273972,0.2,0.8,0.2,0.8,1,-0.852402227,0.8,0.2,0,1,0,0,1,1,0
2,2,2,1,12,0.2,0.8,0.8,0.2,-1,0,2,1,1,2,1,-1,2.391539097,0.2,0.8,0.8,0.2,0,-0.871937132,0.8,0.2,0,1,1,1,1,0,0
2,2,2,1,13,0.2,0.8,0.8,0.2,-1,0,2,1,1,1,2,0,2.994251013,0.2,0.8,0.2,0.8,1,-1.096694121,0.8,0.2,0,1,0,0,1,0,1
2,2,2,1,14,0.2,0.8,0.8,0.2,1,0,2,1,1,2,1,1,2.97778511,0.2,0.8,0.8,0.2,0,-1.091179773,0.8,0.2,0,1,0,0,1,0,1
2,2,2,1,15,0.2,0.8,0.8,0.2,1,0,2,1,1,2,2,0,1.308422089,0.2,0.8,0.8,0.2,0,-0.268821899,0.8,0.2,0,1,0,0,1,1,1
2,2,2,1,16,0.2,0.8,0.8,0.2,1,0,1,1,1,2,1,1,2.287571192,0.2,0.8,0.8,0.2,0,-0.82749064,0.8,0.2,0,1,1,0,0,1,1
2,2,2,1,17,0.2,0.8,0.8,0.2,-1,0,1,1,1,1,2,0,1.411701202,0.2,0.8,0.2,0.8,1,-0.344795504,0.8,0.2,0,1,0,0,1,0,1
2,2,2,1,18,0.2,0.8,0.8,0.2,-1,0,1,1,0,1,2,0,1.656183004,0.2,0.8,0.2,0.8,1,-0.50451556,0.8,0.2,0,1,0,0,1,1,0
2,2,2,1,19,0.2,0.8,0.8,0.2,1,0,1,1,1,2,1,1,2.269327879,0.2,0.8,0.8,0.2,0,-0.819483699,0.8,0.2,0,1,0,0,1,0,0
2,2,2,1,20,0.2,0.8,0.8,0.2,1,0,2,1,0,2,2,0,1.946805954,0.2,0.8,0.8,0.2,0,-0.666190057,0.8,0.2,0,1,0,0,0,1,0
2,2,2,1,21,0.2,0.8,0.8,0.2,1,0,1,1,1,2,1,1,1.391309023,0.2,0.8,0.8,0.2,0,-0.330245047,0.8,0.2,0,1,1,0,0,1,0
2,2,2,1,22,0.2,0.8,0.8,0.2,1,0,2,1,0,2,1,1,1.132672071,0.2,0.8,0.8,0.2,0,-0.124579506,0.8,0.2,0,1,0,0,0,1,0
2,2,2,1,23,0.2,0.8,0.8,0.2,1,0,1,1,0,2,1,1,1.001632929,0.2,0.8,0.8,0.2,0,-0.001631597,0.8,0.2,0,1,0,0,0,1,1
2,2,2,1,24,0.2,0.8,0.8,0.2,-1,0,1,1,0,1,2,0,1.420094013,0.2,0.8,0.2,0.8,1,-0.350723076,0.8,0.2,0,1,0,0,1,0,1
2,2,2,1,25,0.8,0.2,0.8,0.2,-1,0,2,1,1,2,2,0,2.072917938,0.8,0.2,0.2,0.8,0,-0.728957247,0.2,0.8,0,1,0,1,0,0,0
2,2,2,1,26,0.8,0.2,0.8,0.2,1,0,2,1,1,1,2,0,1.545717001,0.8,0.2,0.8,0.2,1,-0.435487881,0.2,0.8,0,1,1,1,1,0,1
2,2,2,1,27,0.8,0.2,0.8,0.2,1,0,1,1,0,2,2,0,1.553063154,0.8,0.2,0.2,0.8,0,-0.440229209,0.2,0.8,0,1,0,0,0,0,0
2,2,2,1,28,0.8,0.2,0.8,0.2,1,0,2,1,0,2,2,0,2.711781979,0.8,0.2,0.2,0.8,0,-0.997605975,0.2,0.8,0,1,1,0,0,1,1
2,2,2,1,29,0.8,0.2,0.8,0.2,-1,0,1,1,1,2,2,0,2.624187946,0.8,0.2,0.2,0.8,0,-0.964771494,0.2,0.8,0,1,1,1,0,1,0
2,2,2,1,30,0.8,0.2,0.8,0.2,1,0,1,1,1,1,1,1,1.398247957,0.8,0.2,0.8,0.2,1,-0.335219994,0.2,0.8,0,1,1,1,1,0,1
2,2,2,1,31,0.8,0.2,0.8,0.2,-1,0,1,1,0,2,2,0,1.705248117,0.8,0.2,0.2,0.8,0,-0.533710624,0.2,0.8,0,1,1,1,1,0,0
2,2,2,1,32,0.2,0.8,0.8,0.2,-1,0,2,1,1,1,2,0,1.209376097,0.2,0.8,0.2,0.8,1,-0.190104604,0.8,0.2,0,1,1,0,0,0,0
2,2,2,1,33,0.2,0.8,0.8,0.2,-1,0,2,1,1,1,2,0,2.813056946,0.2,0.8,0.2,0.8,1,-1.034271773,0.8,0.2,0,1,0,0,1,1,1
2,2,2,1,34,0.2,0.8,0.8,0.2,-1,0,2,1,1,1,2,0,1.239911795,0.2,0.8,0.2,0.8,1,-0.215040244,0.8,0.2,0,1,0,0,1,1,1
2,2,2,1,35,0.2,0.8,0.8,0.2,1,0,1,1,1,1,2,0,1.787954092,0.2,0.8,0.2,0.8,1,-0.581072001,0.8,0.2,0,1,0,1,0,1,1
2,2,2,1,36,0.2,0.8,0.8,0.2,-1,0,1,1,0,1,2,0,1.647944927,0.2,0.8,0.2,0.8,1,-0.499529013,0.8,0.2,0,1,0,0,1,1,0
2,2,2,1,37,0.2,0.8,0.8,0.2,1,0,2,1,1,1,1,1,2.105648994,0.2,0.8,0.2,0.8,1,-0.744623731,0.8,0.2,0,1,0,1,0,1,0
2,2,2,1,38,0.2,0.8,0.8,0.2,1,0,2,1,0,1,1,1,1.025897026,0.2,0.8,0.2,0.8,1,-0.025567377,0.8,0.2,0,1,1,1,1,1,0
2,2,2,1,39,0.2,0.8,0.8,0.2,1,0,1,1,1,1,1,1,1.91880703,0.2,0.8,0.2,0.8,1,-0.651703654,0.8,0.2,0,1,1,1,0,1,0
2,2,2,1,40,0.2,0.8,0.8,0.2,1,0,2,1,1,1,2,0,1.108513117,0.2,0.8,0.2,0.8,1,-0.103019583,0.8,0.2,0,1,1,1,0,1,1
2,2,2,1,41,0.2,0.8,0.8,0.2,-1,0,1,1,0,1,2,0,2.929669142,0.2,0.8,0.2,0.8,1,-1.074889496,0.8,0.2,0,1,0,0,0,1,0
2,2,2,1,42,0.8,0.2,0.8,0.2,-1,0,2,1,0,1,1,-1,1.383518934,0.8,0.2,0.8,0.2,1,-0.324630206,0.2,0.8,0,1,0,0,0,1,1
2,2,2,1,43,0.8,0.2,0.8,0.2,1,0,1,1,1,1,1,1,2.02136302,0.8,0.2,0.8,0.2,1,-0.703772046,0.2,0.8,0,1,1,1,0,1,0
2,2,2,1,44,0.8,0.2,0.8,0.2,1,0,1,1,0,1,1,1,1.599374056,0.8,0.2,0.8,0.2,1,-0.469612338,0.2,0.8,0,1,1,1,1,1,0
2,2,2,1,45,0.8,0.2,0.8,0.2,-1,0,1,1,0,2,2,0,2.121828079,0.8,0.2,0.2,0.8,0,-0.752278019,0.2,0.8,0,1,1,1,1,0,1
2,2,2,1,46,0.8,0.2,0.8,0.2,1,0,2,1,1,1,1,1,2.157719135,0.8,0.2,0.8,0.2,1,-0.769051708,0.2,0.8,0,1,1,1,0,0,0
2,2,2,1,47,0.2,0.8,0.8,0.2,-1,0,1,1,1,2,1,-1,1.868570805,0.2,0.8,0.8,0.2,0,-0.625173863,0.8,0.2,0,1,1,1,0,0,1
2,2,2,1,48,0.2,0.8,0.8,0.2,-1,0,1,1,1,1,2,0,2.303502083,0.2,0.8,0.2,0.8,1,-0.83443061,0.8,0.2,0,1,0,0,1,0,1
2,2,2,1,49,0.2,0.8,0.8,0.2,1,0,2,1,1,2,1,1,1.776567936,0.2,0.8,0.8,0.2,0,-0.574683377,0.8,0.2,0,1,0,0,0,0,1
2,2,2,1,50,0.2,0.8,0.8,0.2,1,0,1,1,1,2,2,0,1.584911108,0.2,0.8,0.8,0.2,0,-0.460528322,0.8,0.2,0,1,0,0,0,1,1
2,2,2,1,51,0.2,0.8,0.8,0.2,1,0,1,1,1,1,2,0,1.847676992,0.2,0.8,0.2,0.8,1,-0.61392917,0.8,0.2,0,1,1,1,1,0,1
2,2,2,1,52,0.2,0.8,0.8,0.2,1,0,2,1,0,2,1,1,1.807086945,0.2,0.8,0.8,0.2,0,-0.591716126,0.8,0.2,0,1,0,0,0,0,0
2,2,2,1,53,0.2,0.8,0.8,0.2,-1,0,2,1,0,1,2,0,1.333588123,0.2,0.8,0.2,0.8,1,-0.287873147,0.8,0.2,0,1,0,0,1,0,1
2,2,2,1,54,0.2,0.8,0.8,0.2,1,0,1,1,0,2,1,1,1.703469038,0.2,0.8,0.8,0.2,0,-0.532666782,0.8,0.2,0,1,0,0,0,0,1
2,2,2,1,55,0.8,0.2,0.8,0.2,1,0,2,1,1,2,1,1,0.955322981,0.8,0.2,0.2,0.8,0,0.045705796,0.2,0.8,0,1,0,0,0,1,0
2,2,2,1,56,0.8,0.2,0.8,0.2,1,0,2,1,1,2,2,0,1.187927008,0.8,0.2,0.2,0.8,0,-0.172209778,0.2,0.8,0,1,0,0,1,1,1
2,2,2,1,57,0.8,0.2,0.8,0.2,-1,0,2,1,1,2,1,-1,1.81416893,0.8,0.2,0.2,0.8,0,-0.595627473,0.2,0.8,0,1,1,1,1,1,1
2,2,2,1,58,0.8,0.2,0.8,0.2,1,0,1,1,1,2,2,0,3.665766001,0.8,0.2,0.2,0.8,0,-1.299037318,0.2,0.8,0,1,0,0,0,1,1
2,2,2,1,59,0.8,0.2,0.8,0.2,-1,0,1,1,1,1,1,-1,2.476440907,0.8,0.2,0.8,0.2,1,-0.906822411,0.2,0.8,0,1,1,0,1,0,1
2,2,2,1,60,0.8,0.2,0.8,0.2,-1,0,1,1,0,1,2,0,2.422676086,0.8,0.2,0.8,0.2,1,-0.88487275,0.2,0.8,0,1,1,0,1,1,0
2,2,3,2,1,0.8,0.2,0.8,0.2,1,0,4,1,0,2,2,0,1.481455088,0.8,0.2,0.2,0.8,0,-0.393024772,0.2,0.8,0,1,0,0,0,0,1
2,2,3,2,2,0.8,0.2,0.8,0.2,-1,0,3,2,1,2,2,0,1.956554174,0.8,0.2,0.2,0.8,0,-0.671184852,0.2,0.8,0,1,1,1,0,1,0
2,2,3,2,3,0.8,0.2,0.8,0.2,-1,0,4,1,0,1,1,-1,2.190308094,0.8,0.2,0.8,0.2,1,-0.784042216,0.2,0.8,0,1,1,0,0,0,0
2,2,3,2,4,0.8,0.2,0.8,0.2,1,0,4,1,0,1,1,1,1.972478151,0.8,0.2,0.8,0.2,1,-0.679290697,0.2,0.8,0,1,1,1,1,1,1
2,2,3,2,5,0.8,0.2,0.8,0.2,1,0,4,1,0,1,2,0,1.545053959,0.8,0.2,0.8,0.2,1,-0.435058835,0.2,0.8,0,1,1,1,1,1,1
2,2,3,2,6,0.8,0.2,0.8,0.2,-1,0,3,2,0,2,1,-1,2.617381096,0.8,0.2,0.2,0.8,0,-0.962174236,0.2,0.8,0,1,0,1,0,0,1
2,2,3,2,7,0.8,0.2,0.2,0.8,-1,0,3,2,1,2,1,-1,1.858362913,0.2,0.8,0.8,0.2,0,-0.619695946,0.8,0.2,0,1,0,1,1,1,0
2,2,3,2,8,0.8,0.2,0.2,0.8,1,0,4,1,0,1,1,1,3.404216051,0.8,0.2,0.8,0.2,1,-1.225014678,0.2,0.8,0,1,0,1,0,0,0
2,2,3,2,9,0.8,0.2,0.2,0.8,-1,0,4,1,0,2,2,0,4.370025158,0.8,0.2,0.2,0.8,0,-1.474768766,0.2,0.8,0,1,1,1,1,0,1
2,2,3,2,10,0.8,0.2,0.2,0.8,1,0,4,1,9,0,9,9,9,0.8,0.2,NaN,NaN,NaN,NaN,0.2,0.8,1,1,1,0,1,0,0
2,2,3,2,11,0.8,0.2,0.2,0.8,-1,0,4,1,1,1,2,0,0.704643965,0.8,0.2,0.8,0.2,1,0.350062618,0.2,0.8,0,1,0,0,1,0,0
2,2,3,2,12,0.8,0.2,0.2,0.8,1,0,4,1,0,1,1,1,0.981566906,0.8,0.2,0.8,0.2,1,0.018605101,0.2,0.8,0,1,0,1,1,1,0
2,2,3,2,13,0.8,0.2,0.2,0.8,-1,0,3,2,1,1,2,0,0.780930042,0.2,0.8,0.2,0.8,1,0.247269708,0.8,0.2,0,1,1,0,0,1,0
2,2,3,2,14,0.8,0.2,0.2,0.8,-1,0,4,1,1,1,1,-1,1.126976967,0.8,0.2,0.8,0.2,1,-0.119538797,0.2,0.8,0,1,0,0,0,1,1
2,2,3,2,15,0.8,0.2,0.2,0.8,-1,0,3,2,0,1,2,0,1.02073884,0.2,0.8,0.2,0.8,1,-0.020526718,0.8,0.2,0,1,1,0,0,1,0
2,2,3,2,16,0.8,0.2,0.2,0.8,-1,0,3,2,0,1,1,-1,1.0316329,0.2,0.8,0.2,0.8,1,-0.031142887,0.8,0.2,0,1,0,0,1,1,1
2,2,3,2,17,0.8,0.2,0.2,0.8,1,0,3,2,1,1,2,0,1.181071997,0.2,0.8,0.2,0.8,1,-0.166422498,0.8,0.2,0,1,1,1,1,1,0
2,2,3,2,18,0.8,0.2,0.2,0.8,-1,0,3,2,0,1,2,0,1.222768068,0.2,0.8,0.2,0.8,1,-0.201117197,0.8,0.2,0,1,0,0,1,1,0
2,2,3,2,19,0.8,0.2,0.2,0.8,-1,0,4,1,1,2,2,0,1.026204824,0.8,0.2,0.2,0.8,0,-0.025867361,0.2,0.8,0,1,0,1,0,0,0
2,2,3,2,20,0.8,0.2,0.2,0.8,1,0,3,2,1,2,1,1,1.247703075,0.2,0.8,0.8,0.2,0,-0.221304321,0.8,0.2,0,1,1,0,0,1,1
2,2,3,2,21,0.8,0.2,0.2,0.8,1,0,3,2,0,2,2,0,1.15820694,0.2,0.8,0.8,0.2,0,-0.146873068,0.8,0.2,0,1,0,0,1,1,0
2,2,3,2,22,0.8,0.2,0.2,0.8,1,0,4,1,1,2,1,1,1.090197802,0.8,0.2,0.2,0.8,0,-0.086359149,0.2,0.8,0,1,1,0,0,1,0
2,2,3,2,23,0.8,0.2,0.2,0.8,-1,0,4,1,1,2,2,0,2.1489501,0.8,0.2,0.2,0.8,0,-0.764979397,0.2,0.8,0,1,0,1,1,1,1
2,2,3,2,24,0.8,0.2,0.2,0.8,-1,0,3,2,0,2,1,-1,0.975656986,0.2,0.8,0.8,0.2,0,0.024644203,0.8,0.2,0,1,1,1,0,1,0
2,2,3,2,25,0.8,0.2,0.8,0.2,-1,0,3,2,1,2,2,0,0.896543026,0.8,0.2,0.2,0.8,0,0.109208994,0.2,0.8,0,1,0,1,1,1,0
2,2,3,2,26,0.8,0.2,0.8,0.2,-1,0,4,1,1,2,2,0,0.86985302,0.8,0.2,0.2,0.8,0,0.139431024,0.2,0.8,0,1,1,1,0,1,1
2,2,3,2,27,0.8,0.2,0.8,0.2,-1,0,3,2,1,1,1,-1,1.230887175,0.8,0.2,0.8,0.2,1,-0.20773519,0.2,0.8,0,1,1,0,0,0,1
2,2,3,2,28,0.8,0.2,0.8,0.2,1,0,4,1,0,1,2,0,1.018840075,0.8,0.2,0.8,0.2,1,-0.018664798,0.2,0.8,0,1,1,1,0,1,0
2,2,3,2,29,0.8,0.2,0.8,0.2,-1,0,4,1,1,1,1,-1,1.213347912,0.8,0.2,0.8,0.2,1,-0.193383408,0.2,0.8,0,1,0,0,1,1,0
2,2,3,2,30,0.8,0.2,0.8,0.2,-1,0,3,2,0,2,2,0,1.281125069,0.8,0.2,0.2,0.8,0,-0.247738652,0.2,0.8,0,1,1,1,0,0,0
2,2,3,2,31,0.2,0.8,0.8,0.2,1,0,4,1,0,2,2,0,1.144629002,0.2,0.8,0.8,0.2,0,-0.135080568,0.8,0.2,0,1,1,0,0,1,1
2,2,3,2,32,0.2,0.8,0.2,0.8,-1,0,3,2,1,2,1,-1,0.900253057,0.2,0.8,0.8,0.2,0,0.10507938,0.8,0.2,0,1,1,1,0,1,0
2,2,3,2,33,0.8,0.2,0.2,0.8,1,0,3,2,1,2,1,1,1.035136938,0.2,0.8,0.8,0.2,0,-0.034533725,0.8,0.2,0,1,0,0,1,1,1
2,2,3,2,34,0.8,0.2,0.2,0.8,-1,0,4,1,0,2,2,0,1.226798058,0.8,0.2,0.2,0.8,0,-0.20440757,0.2,0.8,0,1,0,1,0,1,0
2,2,3,2,35,0.8,0.2,0.8,0.2,-1,0,4,1,1,2,2,0,0.751935005,0.8,0.2,0.2,0.8,0,0.285105388,0.2,0.8,0,1,1,1,1,1,0
2,2,3,2,36,0.8,0.2,0.8,0.2,-1,0,3,2,1,2,2,0,0.944470882,0.8,0.2,0.2,0.8,0,0.057130421,0.2,0.8,0,1,1,1,0,1,1
2,2,3,2,37,0.8,0.2,0.8,0.2,-1,0,4,1,1,2,2,0,1.114569902,0.8,0.2,0.2,0.8,0,-0.108468593,0.2,0.8,0,1,1,1,0,1,1
2,2,3,2,38,0.8,0.2,0.8,0.2,1,0,3,2,0,1,1,1,1.008978844,0.8,0.2,0.8,0.2,1,-0.008938774,0.2,0.8,0,1,1,1,0,0,0
2,2,3,2,39,0.8,0.2,0.8,0.2,1,0,3,2,0,1,1,1,0.795233965,0.8,0.2,0.8,0.2,1,0.229118912,0.2,0.8,0,1,1,1,1,1,1
2,2,3,2,40,0.8,0.2,0.8,0.2,1,0,3,2,1,1,1,1,0.842797995,0.8,0.2,0.8,0.2,1,0.171027976,0.2,0.8,0,1,1,1,1,1,0
2,2,3,2,41,0.8,0.2,0.2,0.8,1,0,4,1,1,1,2,0,0.870045185,0.8,0.2,0.8,0.2,1,0.139210132,0.2,0.8,0,1,1,1,0,1,1
2,2,3,2,42,0.8,0.2,0.2,0.8,1,0,4,1,1,2,2,0,1.672217131,0.8,0.2,0.2,0.8,0,-0.514150369,0.2,0.8,0,1,0,0,1,0,1
2,2,3,2,43,0.8,0.2,0.2,0.8,1,0,3,2,0,1,2,0,1.601440907,0.2,0.8,0.2,0.8,1,-0.470903791,0.8,0.2,0,1,1,1,0,0,0
2,2,3,2,44,0.8,0.2,0.2,0.8,-1,0,3,2,1,2,1,-1,1.391117096,0.2,0.8,0.8,0.2,0,-0.330107091,0.8,0.2,0,1,0,1,1,0,0
2,2,3,2,45,0.8,0.2,0.2,0.8,1,0,4,1,0,1,2,0,2.324673891,0.8,0.2,0.8,0.2,1,-0.843579767,0.2,0.8,0,1,0,1,0,0,0
2,2,3,2,46,0.8,0.2,0.2,0.8,-1,0,3,2,0,1,2,0,1.152163982,0.2,0.8,0.2,0.8,1,-0.141641898,0.8,0.2,0,1,0,0,0,1,1
2,2,3,2,47,0.8,0.2,0.2,0.8,1,0,4,1,1,2,1,1,0.763088942,0.8,0.2,0.2,0.8,0,0.270380686,0.2,0.8,0,1,0,0,0,0,0
2,2,3,2,48,0.8,0.2,0.2,0.8,-1,0,3,2,1,1,2,0,1.031643867,0.2,0.8,0.2,0.8,1,-0.031153518,0.8,0.2,0,1,0,0,0,0,1
2,2,3,2,49,0.8,0.2,0.2,0.8,-1,0,4,1,1,1,1,-1,0.651013136,0.8,0.2,0.8,0.2,1,0.429225459,0.2,0.8,0,1,0,0,0,1,1
2,2,3,2,50,0.8,0.2,0.2,0.8,1,0,3,2,0,2,1,1,0.623652935,0.2,0.8,0.8,0.2,0,0.472161259,0.8,0.2,0,1,1,0,0,0,0
2,2,3,2,51,0.8,0.2,0.2,0.8,-1,0,3,2,1,1,2,0,0.625526905,0.2,0.8,0.2,0.8,1,0.469160936,0.8,0.2,0,1,0,0,1,0,0
2,2,3,2,52,0.8,0.2,0.2,0.8,1,0,3,2,1,2,1,1,1.08831501,0.2,0.8,0.8,0.2,0,-0.084630638,0.8,0.2,0,1,0,0,1,0,1
2,2,3,2,53,0.8,0.2,0.2,0.8,1,0,4,1,0,2,2,0,1.136012077,0.8,0.2,0.2,0.8,0,-0.127523952,0.2,0.8,0,1,0,0,0,1,0
2,2,3,2,54,0.2,0.8,0.2,0.8,1,0,3,2,1,1,2,0,1.176607132,0.2,0.8,0.2,0.8,1,-0.162634985,0.8,0.2,0,1,1,1,0,0,0
2,2,3,2,55,0.2,0.8,0.2,0.8,-1,0,4,1,0,1,1,-1,1.273814917,0.2,0.8,0.2,0.8,1,-0.242016269,0.8,0.2,0,1,0,0,0,1,0
2,2,3,2,56,0.2,0.8,0.2,0.8,1,0,3,2,1,2,1,1,1.223392963,0.2,0.8,0.8,0.2,0,-0.201628116,0.8,0.2,0,1,1,0,0,0,0
2,2,3,2,57,0.2,0.8,0.2,0.8,-1,0,4,1,0,1,2,0,1.480359077,0.2,0.8,0.2,0.8,1,-0.392284678,0.8,0.2,0,1,0,0,0,0,0
2,2,3,2,58,0.2,0.8,0.2,0.8,-1,0,3,2,0,1,2,0,1.508581161,0.2,0.8,0.2,0.8,1,-0.411169581,0.8,0.2,0,1,0,0,0,1,1
2,2,3,2,59,0.2,0.8,0.2,0.8,-1,0,4,1,0,1,2,0,1.295889854,0.2,0.8,0.2,0.8,1,-0.259197605,0.8,0.2,0,1,0,0,0,1,1
2,2,3,2,60,0.2,0.8,0.2,0.8,1,0,4,1,0,2,1,1,1.483647823,0.2,0.8,0.8,0.2,0,-0.394503801,0.8,0.2,0,1,0,0,1,0,1
2,2,4,1,1,0.8,0.2,0.8,0.2,1,0,1,1,0,2,2,0,0.860181093,0.8,0.2,0.2,0.8,0,0.150612338,0.2,0.8,0,1,0,0,0,1,1
2,2,4,1,2,0.8,0.2,0.8,0.2,1,0,2,1,1,1,1,1,0.84564805,0.8,0.2,0.8,0.2,1,0.167652022,0.2,0.8,0,1,1,1,0,0,0
2,2,4,1,3,0.8,0.2,0.8,0.2,1,0,1,1,1,1,1,1,0.551246166,0.8,0.2,0.8,0.2,1,0.595573807,0.2,0.8,0,1,1,1,0,1,1
2,2,4,1,4,0.8,0.2,0.8,0.2,1,0,1,1,0,1,1,1,0.808956146,0.8,0.2,0.8,0.2,1,0.212010571,0.2,0.8,0,1,1,1,1,1,0
2,2,4,1,5,0.8,0.2,0.8,0.2,-1,0,1,1,1,1,2,0,1.041229963,0.8,0.2,0.8,0.2,1,-0.040402671,0.2,0.8,0,1,1,0,1,1,0
2,2,4,1,6,0.8,0.2,0.8,0.2,-1,0,1,1,1,1,1,-1,0.754971981,0.8,0.2,0.8,0.2,1,0.281074642,0.2,0.8,0,1,0,0,1,1,1
2,2,4,1,7,0.8,0.2,0.8,0.2,-1,0,1,1,0,2,2,0,1.635679007,0.8,0.2,0.2,0.8,0,-0.492058013,0.2,0.8,0,1,1,1,1,0,0
2,2,4,1,8,0.8,0.2,0.8,0.2,1,0,1,1,0,2,1,1,1.344011068,0.8,0.2,0.2,0.8,0,-0.295658477,0.2,0.8,0,1,1,0,1,1,1
2,2,4,1,9,0.8,0.2,0.8,0.2,1,0,1,1,0,2,2,0,0.848788023,0.8,0.2,0.2,0.8,0,0.163945802,0.2,0.8,0,1,0,0,1,1,1
2,2,4,1,10,0.8,0.2,0.8,0.2,-1,0,2,1,1,2,2,0,2.920269012,0.8,0.2,0.2,0.8,0,-1.07167574,0.2,0.8,0,1,1,1,0,1,0
2,2,4,1,11,0.8,0.2,0.8,0.2,1,0,2,1,0,1,2,0,1.594090939,0.8,0.2,0.8,0.2,1,-0.466303629,0.2,0.8,0,1,1,1,1,0,0
2,2,4,1,12,0.8,0.2,0.8,0.2,-1,0,2,1,0,2,2,0,1.705348969,0.8,0.2,0.2,0.8,0,-0.533769763,0.2,0.8,0,1,0,1,1,0,1
2,2,4,1,13,0.8,0.2,0.8,0.2,1,0,2,1,1,1,1,1,1.301270962,0.8,0.2,0.8,0.2,1,-0.26334145,0.2,0.8,0,1,1,1,1,0,0
2,2,4,1,14,0.8,0.2,0.8,0.2,-1,0,1,1,0,2,1,-1,1.0604949,0.8,0.2,0.2,0.8,0,-0.058735686,0.2,0.8,0,1,1,1,0,0,0
2,2,4,1,15,0.2,0.8,0.8,0.2,1,0,2,1,0,1,2,0,1.351331949,0.2,0.8,0.2,0.8,1,-0.301090735,0.8,0.2,0,1,0,1,0,0,1
2,2,4,1,16,0.2,0.8,0.8,0.2,1,0,1,1,1,2,1,1,0.865261078,0.2,0.8,0.8,0.2,0,0.144723993,0.8,0.2,0,1,0,0,0,0,0
2,2,4,1,17,0.2,0.8,0.8,0.2,-1,0,1,1,1,1,2,0,1.303771019,0.2,0.8,0.2,0.8,1,-0.265260849,0.8,0.2,0,1,0,0,1,0,1
2,2,4,1,18,0.2,0.8,0.8,0.2,1,0,2,1,0,2,1,1,0.816797972,0.2,0.8,0.8,0.2,0,0.202363495,0.8,0.2,0,1,0,0,0,0,0
2,2,4,1,19,0.2,0.8,0.8,0.2,1,0,1,1,0,2,1,1,0.491865158,0.2,0.8,0.8,0.2,0,0.709550669,0.8,0.2,0,1,0,0,0,1,1
2,2,4,1,20,0.2,0.8,0.8,0.2,1,0,1,1,1,2,1,1,0.681931019,0.2,0.8,0.8,0.2,0,0.382826772,0.8,0.2,0,1,0,0,1,1,0
2,2,4,1,21,0.2,0.8,0.8,0.2,-1,0,2,1,0,1,2,0,1.081881046,0.2,0.8,0.2,0.8,1,-0.078701236,0.8,0.2,0,1,0,0,0,0,0
2,2,4,1,22,0.8,0.2,0.8,0.2,-1,0,1,1,1,1,1,-1,0.81882906,0.8,0.2,0.8,0.2,1,0.199879935,0.2,0.8,0,1,0,0,0,1,0
2,2,4,1,23,0.8,0.2,0.8,0.2,-1,0,2,1,0,1,1,-1,0.74794507,0.8,0.2,0.8,0.2,1,0.290425739,0.2,0.8,0,1,1,0,0,1,0
2,2,4,1,24,0.8,0.2,0.8,0.2,-1,0,2,1,1,2,2,0,1.638306856,0.8,0.2,0.2,0.8,0,-0.493663304,0.2,0.8,0,1,1,1,1,0,0
2,2,4,1,25,0.8,0.2,0.8,0.2,1,0,1,1,0,1,1,1,1.389827013,0.8,0.2,0.8,0.2,1,-0.329179288,0.2,0.8,0,1,1,1,0,0,0
2,2,4,1,26,0.8,0.2,0.8,0.2,1,0,1,1,0,1,2,0,0.659188032,0.8,0.2,0.8,0.2,1,0.416746456,0.2,0.8,0,1,1,1,1,1,1
2,2,4,1,27,0.8,0.2,0.8,0.2,1,0,2,1,0,1,1,1,1.148214102,0.8,0.2,0.8,0.2,1,-0.13820778,0.2,0.8,0,1,0,1,0,1,1
2,2,4,1,28,0.2,0.8,0.8,0.2,-1,0,2,1,0,2,2,0,1.350399017,0.2,0.8,0.8,0.2,0,-0.300400117,0.8,0.2,0,1,1,1,1,0,1
2,2,4,1,29,0.2,0.8,0.8,0.2,-1,0,1,1,0,2,2,0,1.214846849,0.2,0.8,0.8,0.2,0,-0.194618019,0.8,0.2,0,1,1,1,0,1,1
2,2,4,1,30,0.2,0.8,0.8,0.2,-1,0,1,1,0,2,1,-1,1.302858114,0.2,0.8,0.8,0.2,0,-0.264560401,0.8,0.2,0,1,1,1,1,1,1
2,2,4,1,31,0.2,0.8,0.8,0.2,1,0,2,1,1,2,1,1,1.12604022,0.2,0.8,0.8,0.2,0,-0.118707249,0.8,0.2,0,1,0,0,0,1,0
2,2,4,1,32,0.2,0.8,0.8,0.2,-1,0,2,1,0,1,2,0,0.991655111,0.2,0.8,0.2,0.8,1,0.008379902,0.8,0.2,0,1,0,0,1,0,0
2,2,4,1,33,0.8,0.2,0.8,0.2,1,0,2,1,0,2,2,0,1.112136126,0.8,0.2,0.2,0.8,0,-0.106282603,0.2,0.8,0,1,0,0,1,0,1
2,2,4,1,34,0.8,0.2,0.8,0.2,1,0,2,1,1,1,2,0,0.978741884,0.8,0.2,0.8,0.2,1,0.021487324,0.2,0.8,0,1,1,1,1,0,0
2,2,4,1,35,0.8,0.2,0.8,0.2,1,0,1,1,1,1,1,1,1.170702934,0.8,0.2,0.8,0.2,1,-0.157604367,0.2,0.8,0,1,0,1,0,1,1
2,2,4,1,36,0.8,0.2,0.8,0.2,1,0,2,1,0,1,1,1,0.860101938,0.8,0.2,0.8,0.2,1,0.150704364,0.2,0.8,0,1,1,1,0,1,0
2,2,4,1,37,0.8,0.2,0.8,0.2,-1,0,1,1,0,2,2,0,1.145280123,0.8,0.2,0.2,0.8,0,-0.135649256,0.2,0.8,0,1,1,1,0,0,1
2,2,4,1,38,0.8,0.2,0.8,0.2,-1,0,1,1,1,2,2,0,1.054341078,0.8,0.2,0.2,0.8,0,-0.052916001,0.2,0.8,0,1,1,1,1,1,0
2,2,4,1,39,0.8,0.2,0.8,0.2,-1,0,1,1,1,2,2,0,0.716248989,0.8,0.2,0.2,0.8,0,0.333727422,0.2,0.8,0,1,1,1,1,1,1
2,2,4,1,40,0.8,0.2,0.8,0.2,-1,0,1,1,1,2,2,0,1.238932133,0.8,0.2,0.2,0.8,0,-0.214249825,0.2,0.8,0,1,1,1,1,1,1
2,2,4,1,41,0.8,0.2,0.8,0.2,1,0,2,1,0,1,2,0,1.232091904,0.8,0.2,0.8,0.2,1,-0.208713459,0.2,0.8,0,1,1,1,0,0,0
2,2,4,1,42,0.8,0.2,0.8,0.2,1,0,2,1,1,2,2,0,0.601486921,0.8,0.2,0.2,0.8,0,0.508350487,0.2,0.8,0,1,0,0,1,0,0
2,2,4,1,43,0.8,0.2,0.8,0.2,1,0,2,1,1,1,1,1,1.185310125,0.8,0.2,0.8,0.2,1,-0.17000445,0.2,0.8,0,1,1,1,1,0,1
2,2,4,1,44,0.8,0.2,0.8,0.2,1,0,1,1,0,1,1,1,1.024770021,0.8,0.2,0.8,0.2,1,-0.024468218,0.2,0.8,0,1,1,1,0,1,0
2,2,4,1,45,0.8,0.2,0.8,0.2,1,0,2,1,0,1,1,1,0.711627007,0.8,0.2,0.8,0.2,1,0.340201372,0.2,0.8,0,1,1,1,0,1,1
2,2,4,1,46,0.8,0.2,0.8,0.2,-1,0,2,1,0,2,2,0,1.031299114,0.8,0.2,0.2,0.8,0,-0.030819283,0.2,0.8,0,1,1,1,1,0,1
2,2,4,1,47,0.8,0.2,0.8,0.2,1,0,1,1,1,1,2,0,0.783586025,0.8,0.2,0.8,0.2,1,0.243874427,0.2,0.8,0,1,1,1,0,0,0
2,2,4,1,48,0.2,0.8,0.8,0.2,-1,0,1,1,1,1,2,0,1.840574026,0.2,0.8,0.2,0.8,1,-0.610077494,0.8,0.2,0,1,0,0,1,1,1
2,2,4,1,49,0.2,0.8,0.8,0.2,1,0,2,1,0,2,1,1,1.256546974,0.2,0.8,0.8,0.2,0,-0.228367462,0.8,0.2,0,1,0,0,0,0,0
2,2,4,1,50,0.2,0.8,0.8,0.2,-1,0,1,1,0,1,2,0,1.182911873,0.2,0.8,0.2,0.8,1,-0.167979088,0.8,0.2,0,1,0,0,0,0,1
2,2,4,1,51,0.2,0.8,0.8,0.2,1,0,2,1,1,2,1,1,1.020094872,0.2,0.8,0.8,0.2,0,-0.019895634,0.8,0.2,0,1,0,0,0,0,0
2,2,4,1,52,0.2,0.8,0.8,0.2,-1,0,2,1,1,1,2,0,1.240967989,0.2,0.8,0.2,0.8,1,-0.215891711,0.8,0.2,0,1,0,0,1,0,1
2,2,4,1,53,0.2,0.8,0.8,0.2,-1,0,2,1,0,1,1,-1,0.884140968,0.2,0.8,0.2,0.8,1,0.123138763,0.8,0.2,0,1,0,0,1,1,0
2,2,4,1,54,0.2,0.8,0.8,0.2,1,0,2,1,1,2,1,1,1.065884829,0.2,0.8,0.8,0.2,0,-0.063805279,0.8,0.2,0,1,1,0,1,0,0
2,2,4,1,55,0.2,0.8,0.8,0.2,-1,0,2,1,1,1,2,0,1.12638998,0.2,0.8,0.2,0.8,1,-0.119017811,0.8,0.2,0,1,0,0,1,0,1
2,2,4,1,56,0.2,0.8,0.8,0.2,1,0,2,1,0,2,1,1,0.742838144,0.2,0.8,0.8,0.2,0,0.297277099,0.8,0.2,0,1,0,0,1,0,0
2,2,4,1,57,0.2,0.8,0.8,0.2,1,0,1,1,0,2,1,1,0.963881016,0.2,0.8,0.8,0.2,0,0.03678742,0.8,0.2,0,1,0,0,0,1,1
2,2,4,1,58,0.2,0.8,0.8,0.2,-1,0,2,1,0,1,1,-1,1.453678131,0.2,0.8,0.2,0.8,1,-0.374096987,0.8,0.2,0,1,0,0,0,0,1
2,2,4,1,59,0.2,0.8,0.8,0.2,1,0,1,1,1,1,2,0,1.44841218,0.2,0.8,0.2,0.8,1,-0.370467908,0.8,0.2,0,1,1,1,0,1,0
2,2,4,1,60,0.8,0.2,0.8,0.2,1,0,1,1,0,1,1,1,1.055325985,0.8,0.2,0.8,0.2,1,-0.05384971,0.2,0.8,0,1,0,1,1,1,0
2,2,5,2,1,0.8,0.2,0.8,0.2,1,0,4,1,1,2,1,1,0.891710043,0.8,0.2,0.2,0.8,0,0.114614263,0.2,0.8,0,1,1,0,0,0,0
2,2,5,2,2,0.8,0.2,0.8,0.2,-1,0,4,1,0,1,1,-1,1.080345154,0.8,0.2,0.8,0.2,1,-0.077280577,0.2,0.8,0,1,0,0,1,0,0
2,2,5,2,3,0.8,0.2,0.8,0.2,1,0,3,2,0,1,1,1,1.223250866,0.8,0.2,0.8,0.2,1,-0.201511959,0.2,0.8,0,1,1,1,0,1,1
2,2,5,2,4,0.8,0.2,0.8,0.2,1,0,3,2,1,1,2,0,0.793851852,0.8,0.2,0.8,0.2,1,0.230858419,0.2,0.8,0,1,1,1,1,1,0
2,2,5,2,5,0.8,0.2,0.8,0.2,1,0,3,2,1,1,1,1,0.808493137,0.8,0.2,0.8,0.2,1,0.212583088,0.2,0.8,0,1,0,1,1,1,1
2,2,5,2,6,0.8,0.2,0.8,0.2,-1,0,3,2,1,2,2,0,1.463515043,0.8,0.2,0.2,0.8,0,-0.380841106,0.2,0.8,0,1,1,1,1,0,1
2,2,5,2,7,0.2,0.8,0.8,0.2,1,0,3,2,1,1,1,1,0.757128,0.8,0.2,0.8,0.2,1,0.278222951,0.2,0.8,0,1,1,1,1,0,1
2,2,5,2,8,0.2,0.8,0.8,0.2,-1,0,3,2,0,1,1,-1,1.471054077,0.8,0.2,0.8,0.2,1,-0.385979203,0.2,0.8,0,1,1,0,1,1,0
2,2,5,2,9,0.2,0.8,0.8,0.2,1,0,3,2,0,1,1,1,1.133550882,0.8,0.2,0.8,0.2,1,-0.12535508,0.2,0.8,0,1,1,1,1,1,1
2,2,5,2,10,0.2,0.8,0.8,0.2,-1,0,4,1,0,2,2,0,1.197770119,0.2,0.8,0.8,0.2,0,-0.180461594,0.8,0.2,0,1,1,1,0,0,1
2,2,5,2,11,0.2,0.8,0.8,0.2,1,0,3,2,0,1,1,1,0.9910779,0.8,0.2,0.8,0.2,1,0.00896214,0.2,0.8,0,1,1,1,0,0,1
2,2,5,2,12,0.2,0.8,0.8,0.2,1,0,4,1,1,1,2,0,0.788710117,0.2,0.8,0.2,0.8,1,0.237356431,0.8,0.2,0,1,1,1,0,1,0
2,2,5,2,13,0.2,0.8,0.8,0.2,1,0,4,1,0,1,2,0,0.999160051,0.2,0.8,0.2,0.8,1,0.000840302,0.8,0.2,0,1,0,1,1,1,0
2,2,5,2,14,0.2,0.8,0.8,0.2,-1,0,3,2,1,1,1,-1,1.735692024,0.8,0.2,0.8,0.2,1,-0.551406195,0.2,0.8,0,1,0,0,0,1,0
2,2,5,2,15,0.8,0.2,0.8,0.2,-1,0,4,1,0,2,2,0,1.929649115,0.8,0.2,0.2,0.8,0,-0.65733818,0.2,0.8,0,1,1,1,0,0,0
2,2,5,2,16,0.8,0.2,0.8,0.2,1,0,4,1,0,1,1,1,0.966653109,0.8,0.2,0.8,0.2,1,0.033915577,0.2,0.8,0,1,1,1,1,0,1
2,2,5,2,17,0.8,0.2,0.8,0.2,-1,0,4,1,1,2,2,0,1.056973934,0.8,0.2,0.2,0.8,0,-0.055410046,0.2,0.8,0,1,1,1,1,0,0
2,2,5,2,18,0.8,0.2,0.2,0.8,1,0,3,2,1,1,2,0,0.800680876,0.2,0.8,0.2,0.8,1,0.222292819,0.8,0.2,0,1,1,1,0,0,1
2,2,5,2,19,0.8,0.2,0.2,0.8,-1,0,3,2,1,1,2,0,2.526608944,0.2,0.8,0.2,0.8,1,-0.926878065,0.8,0.2,0,1,0,0,1,1,1
2,2,5,2,20,0.8,0.2,0.2,0.8,-1,0,4,1,1,1,2,0,1.039690018,0.8,0.2,0.8,0.2,1,-0.038922609,0.2,0.8,0,1,0,0,0,1,1
2,2,5,2,21,0.8,0.2,0.2,0.8,1,0,4,1,0,2,2,0,1.335772991,0.8,0.2,0.2,0.8,0,-0.289510144,0.2,0.8,0,1,0,0,1,0,0
2,2,5,2,22,0.8,0.2,0.2,0.8,1,0,4,1,1,2,2,0,0.934966803,0.8,0.2,0.2,0.8,0,0.067244256,0.2,0.8,0,1,1,0,1,1,0
2,2,5,2,23,0.8,0.2,0.8,0.2,-1,0,4,1,0,2,2,0,1.517224073,0.8,0.2,0.2,0.8,0,-0.416882398,0.2,0.8,0,1,1,1,1,1,0
2,2,5,2,24,0.8,0.2,0.8,0.2,-1,0,3,2,0,2,1,-1,1.406109095,0.8,0.2,0.2,0.8,0,-0.340826383,0.2,0.8,0,1,1,1,0,1,1
2,2,5,2,25,0.8,0.2,0.8,0.2,1,0,3,2,0,2,2,0,0.865466833,0.8,0.2,0.2,0.8,0,0.144486226,0.2,0.8,0,1,0,0,1,1,1
2,2,5,2,26,0.8,0.2,0.8,0.2,1,0,3,2,1,2,2,0,0.926234961,0.8,0.2,0.2,0.8,0,0.076627339,0.2,0.8,0,1,1,0,1,1,0
2,2,5,2,27,0.8,0.2,0.8,0.2,1,0,3,2,1,1,1,1,0.776891947,0.8,0.2,0.8,0.2,1,0.252454003,0.2,0.8,0,1,1,1,1,0,1
2,2,5,2,28,0.8,0.2,0.8,0.2,1,0,3,2,1,1,2,0,0.759558916,0.8,0.2,0.8,0.2,1,0.275017388,0.2,0.8,0,1,1,1,1,1,1
2,2,5,2,29,0.8,0.2,0.8,0.2,-1,0,3,2,1,1,1,-1,1.480885029,0.8,0.2,0.8,0.2,1,-0.392639902,0.2,0.8,0,1,0,0,1,1,1
2,2,5,2,30,0.8,0.2,0.8,0.2,-1,0,3,2,1,2,2,0,1.291908979,0.8,0.2,0.2,0.8,0,-0.256120954,0.2,0.8,0,1,1,1,1,0,1
2,2,5,2,31,0.8,0.2,0.8,0.2,-1,0,4,1,0,2,1,-1,1.793216944,0.8,0.2,0.2,0.8,0,-0.584011182,0.2,0.8,0,1,1,1,0,1,0
2,2,5,2,32,0.8,0.2,0.8,0.2,1,0,4,1,1,2,2,0,1.846384048,0.8,0.2,0.2,0.8,0,-0.613229158,0.2,0.8,0,1,0,0,1,1,0
2,2,5,2,33,0.8,0.2,0.8,0.2,-1,0,4,1,0,1,1,-1,0.946093082,0.8,0.2,0.8,0.2,1,0.055414319,0.2,0.8,0,1,1,0,1,0,0
2,2,5,2,34,0.8,0.2,0.8,0.2,-1,0,4,1,0,2,2,0,1.260121107,0.8,0.2,0.2,0.8,0,-0.231207833,0.2,0.8,0,1,1,1,1,0,1
2,2,5,2,35,0.8,0.2,0.8,0.2,1,0,3,2,0,1,1,1,1.65297389,0.8,0.2,0.8,0.2,1,-0.502576023,0.2,0.8,0,1,1,1,0,0,1
2,2,5,2,36,0.8,0.2,0.8,0.2,-1,0,4,1,0,2,2,0,1.112519979,0.8,0.2,0.2,0.8,0,-0.106627694,0.2,0.8,0,1,1,1,0,0,1
2,2,5,2,37,0.8,0.2,0.8,0.2,-1,0,4,1,0,2,2,0,1.082732916,0.8,0.2,0.2,0.8,0,-0.079488323,0.2,0.8,0,1,1,1,1,1,1
2,2,5,2,38,0.2,0.8,0.8,0.2,-1,0,3,2,0,2,2,0,0.875727892,0.8,0.2,0.2,0.8,0,0.132699862,0.2,0.8,0,1,1,1,0,1,1
2,2,5,2,39,0.2,0.8,0.8,0.2,1,0,4,1,1,1,2,0,0.822600126,0.2,0.8,0.2,0.8,1,0.19528507,0.8,0.2,0,1,1,1,0,0,0
2,2,5,2,40,0.2,0.8,0.8,0.2,-1,0,4,1,0,2,2,0,1.038073063,0.2,0.8,0.8,0.2,0,-0.03736617,0.8,0.2,0,1,0,1,1,0,0
2,2,5,2,41,0.2,0.8,0.8,0.2,-1,0,3,2,1,2,2,0,0.98424387,0.8,0.2,0.2,0.8,0,0.015881577,0.2,0.8,0,1,1,1,0,1,0
2,2,5,2,42,0.2,0.8,0.8,0.2,-1,0,4,1,0,2,1,-1,1.575551033,0.2,0.8,0.8,0.2,0,-0.454605073,0.8,0.2,0,1,1,1,0,1,0
2,2,5,2,43,0.2,0.8,0.2,0.8,-1,0,3,2,0,2,1,-1,1.253407955,0.2,0.8,0.8,0.2,0,-0.225866206,0.8,0.2,0,1,0,1,0,1,1
2,2,5,2,44,0.2,0.8,0.2,0.8,1,0,4,1,1,2,1,1,0.987981081,0.2,0.8,0.8,0.2,0,0.01209173,0.8,0.2,0,1,0,0,0,1,0
2,2,5,2,45,0.2,0.8,0.2,0.8,1,0,4,1,0,2,1,1,0.663227081,0.2,0.8,0.8,0.2,0,0.410637842,0.8,0.2,0,1,0,0,1,1,0
2,2,5,2,46,0.2,0.8,0.2,0.8,-1,0,4,1,0,1,2,0,0.868555069,0.2,0.8,0.2,0.8,1,0.140924288,0.8,0.2,0,1,0,0,1,0,1
2,2,5,2,47,0.2,0.8,0.2,0.8,-1,0,4,1,0,1,2,0,0.790915012,0.2,0.8,0.2,0.8,1,0.23456476,0.8,0.2,0,1,0,0,1,1,1
2,2,5,2,48,0.2,0.8,0.2,0.8,1,0,4,1,1,2,1,1,0.643357038,0.2,0.8,0.8,0.2,0,0.441055439,0.8,0.2,0,1,0,0,1,0,0
2,2,5,2,49,0.2,0.8,0.2,0.8,1,0,3,2,0,2,1,1,0.574059963,0.2,0.8,0.8,0.2,0,0.555021423,0.8,0.2,0,1,0,0,0,1,0
2,2,5,2,50,0.2,0.8,0.8,0.2,-1,0,4,1,0,1,2,0,0.785903931,0.2,0.8,0.2,0.8,1,0.24092072,0.8,0.2,0,1,0,0,0,0,1
2,2,5,2,51,0.2,0.8,0.8,0.2,-1,0,4,1,0,2,1,-1,0.64767313,0.2,0.8,0.8,0.2,0,0.434369139,0.8,0.2,0,1,0,1,1,0,1
2,2,5,2,52,0.2,0.8,0.8,0.2,-1,0,3,2,0,1,1,-1,0.940639019,0.8,0.2,0.8,0.2,1,0.061195827,0.2,0.8,0,1,0,0,0,0,1
2,2,5,2,53,0.2,0.8,0.8,0.2,-1,0,3,2,0,2,2,0,1.077273846,0.8,0.2,0.2,0.8,0,-0.074433633,0.2,0.8,0,1,1,1,1,0,1
2,2,5,2,54,0.2,0.8,0.8,0.2,1,0,4,1,0,1,2,0,0.777827978,0.2,0.8,0.2,0.8,1,0.251249887,0.8,0.2,0,1,1,1,0,0,1
2,2,5,2,55,0.2,0.8,0.8,0.2,-1,0,3,2,1,2,2,0,2.015103817,0.8,0.2,0.2,0.8,0,-0.700670716,0.2,0.8,0,1,0,1,0,0,0
2,2,5,2,56,0.2,0.8,0.8,0.2,1,0,3,2,0,1,1,1,1.042558908,0.8,0.2,0.8,0.2,1,-0.04167818,0.2,0.8,0,1,1,1,1,0,0
2,2,5,2,57,0.2,0.8,0.8,0.2,-1,0,3,2,1,2,2,0,1.081896067,0.8,0.2,0.2,0.8,0,-0.078715119,0.2,0.8,0,1,1,1,1,0,0
2,2,5,2,58,0.2,0.8,0.8,0.2,-1,0,3,2,0,2,2,0,1.710527897,0.8,0.2,0.2,0.8,0,-0.536802034,0.2,0.8,0,1,1,1,1,1,0
2,2,5,2,59,0.2,0.8,0.8,0.2,1,0,3,2,0,1,1,1,0.875839949,0.8,0.2,0.8,0.2,1,0.132571912,0.2,0.8,0,1,1,1,1,0,1
2,2,5,2,60,0.2,0.8,0.8,0.2,-1,0,4,1,1,2,1,-1,0.896220922,0.2,0.8,0.8,0.2,0,0.109568331,0.8,0.2,0,1,1,1,0,0,0
2,2,6,1,1,0.8,0.2,0.8,0.2,1,0,2,1,0,2,1,1,1.323055983,0.8,0.2,0.2,0.8,0,-0.279944199,0.2,0.8,0,1,0,0,0,1,0
2,2,6,1,2,0.8,0.2,0.8,0.2,1,0,2,1,0,2,2,0,0.939735889,0.8,0.2,0.2,0.8,0,0.062156412,0.2,0.8,0,1,0,0,1,1,1
2,2,6,1,3,0.8,0.2,0.8,0.2,1,0,2,1,1,1,1,1,1.102365971,0.8,0.2,0.8,0.2,1,-0.097458752,0.2,0.8,0,1,1,1,1,0,0
2,2,6,1,4,0.8,0.2,0.8,0.2,1,0,2,1,0,1,1,1,0.752788067,0.8,0.2,0.8,0.2,1,0.283971543,0.2,0.8,0,1,1,1,1,1,0
2,2,6,1,5,0.8,0.2,0.8,0.2,1,0,1,1,1,1,1,1,1.354665995,0.8,0.2,0.8,0.2,1,-0.303554926,0.2,0.8,0,1,1,1,0,1,0
2,2,6,1,6,0.8,0.2,0.8,0.2,1,0,2,1,0,1,1,1,0.69373107,0.8,0.2,0.8,0.2,1,0.365670901,0.2,0.8,0,1,1,1,0,1,0
2,2,6,1,7,0.8,0.2,0.8,0.2,-1,0,1,1,1,2,2,0,1.172523022,0.8,0.2,0.2,0.8,0,-0.159157856,0.2,0.8,0,1,1,1,0,0,0
2,2,6,1,8,0.8,0.2,0.8,0.2,1,0,1,1,1,1,1,1,0.778576136,0.8,0.2,0.8,0.2,1,0.250288495,0.2,0.8,0,1,1,1,1,0,1
2,2,6,1,9,0.8,0.2,0.8,0.2,-1,0,1,1,1,2,2,0,1.218224049,0.8,0.2,0.2,0.8,0,-0.1973941,0.2,0.8,0,1,1,1,1,0,1
2,2,6,1,10,0.8,0.2,0.8,0.2,1,0,1,1,1,1,1,1,0.858594894,0.8,0.2,0.8,0.2,1,0.15245807,0.2,0.8,0,1,1,1,1,0,1
2,2,6,1,11,0.8,0.2,0.8,0.2,1,0,1,1,0,1,1,1,0.76885581,0.8,0.2,0.8,0.2,1,0.26285183,0.2,0.8,0,1,1,1,1,1,0
2,2,6,1,12,0.8,0.2,0.8,0.2,1,0,2,1,0,1,2,0,0.7581141,0.8,0.2,0.8,0.2,1,0.276921378,0.2,0.8,0,1,1,1,0,1,1
2,2,6,1,13,0.8,0.2,0.8,0.2,1,0,1,1,1,2,2,0,0.87351203,0.8,0.2,0.2,0.8,0,0.135233378,0.2,0.8,0,1,0,0,0,0,0
2,2,6,1,14,0.8,0.2,0.8,0.2,1,0,2,1,1,1,1,1,0.748361826,0.8,0.2,0.8,0.2,1,0.289868693,0.2,0.8,0,1,1,1,0,0,1
2,2,6,1,15,0.8,0.2,0.8,0.2,1,0,2,1,0,1,1,1,0.70120883,0.8,0.2,0.8,0.2,1,0.354949533,0.2,0.8,0,1,1,1,1,1,0
2,2,6,1,16,0.8,0.2,0.8,0.2,1,0,1,1,1,1,1,1,0.583496094,0.8,0.2,0.8,0.2,1,0.538717522,0.2,0.8,0,1,1,1,0,1,0
2,2,6,1,17,0.8,0.2,0.8,0.2,1,0,2,1,0,1,1,1,0.623008966,0.8,0.2,0.8,0.2,1,0.473194368,0.2,0.8,0,1,1,1,0,1,0
2,2,6,1,18,0.8,0.2,0.8,0.2,1,0,2,1,0,1,1,1,0.608896971,0.8,0.2,0.8,0.2,1,0.496106203,0.2,0.8,0,1,1,1,1,1,1
2,2,6,1,19,0.8,0.2,0.8,0.2,-1,0,2,1,1,2,2,0,1.064653873,0.8,0.2,0.2,0.8,0,-0.062649745,0.2,0.8,0,1,1,1,1,0,0
2,2,6,1,20,0.8,0.2,0.8,0.2,1,0,1,1,0,1,1,1,1.312003136,0.8,0.2,0.8,0.2,1,-0.271555081,0.2,0.8,0,1,1,1,0,0,0
2,2,6,1,21,0.8,0.2,0.8,0.2,1,0,2,1,0,1,2,0,0.697318077,0.8,0.2,0.8,0.2,1,0.360513621,0.2,0.8,0,1,1,1,0,1,1
2,2,6,1,22,0.8,0.2,0.8,0.2,1,0,1,1,0,2,2,0,0.737711191,0.8,0.2,0.2,0.8,0,0.304202871,0.2,0.8,0,1,0,0,0,0,1
2,2,6,1,23,0.8,0.2,0.8,0.2,-1,0,1,1,0,2,1,-1,1.382781029,0.8,0.2,0.2,0.8,0,-0.32409671,0.2,0.8,0,1,1,1,1,1,1
2,2,6,1,24,0.8,0.2,0.8,0.2,1,0,1,1,1,2,2,0,0.750536203,0.8,0.2,0.2,0.8,0,0.28696739,0.2,0.8,0,1,0,0,1,1,0
2,2,6,1,25,0.8,0.2,0.8,0.2,-1,0,2,1,1,1,1,-1,1.938163042,0.8,0.2,0.8,0.2,1,-0.661740639,0.2,0.8,0,1,1,0,0,0,1
2,2,6,1,26,0.8,0.2,0.8,0.2,-1,0,1,1,1,2,2,0,1.703243971,0.8,0.2,0.2,0.8,0,-0.532534651,0.2,0.8,0,1,1,1,0,0,1
2,2,6,1,27,0.8,0.2,0.8,0.2,1,0,1,1,0,1,1,1,1.41033721,0.8,0.2,0.8,0.2,1,-0.343828832,0.2,0.8,0,1,1,1,1,0,0
2,2,6,1,28,0.8,0.2,0.8,0.2,1,0,2,1,1,1,2,0,0.656178951,0.8,0.2,0.8,0.2,1,0.421321736,0.2,0.8,0,1,1,1,0,1,0
2,2,6,1,29,0.8,0.2,0.8,0.2,1,0,1,1,0,2,2,0,1.342828989,0.8,0.2,0.2,0.8,0,-0.294778574,0.2,0.8,0,1,0,0,0,0,0
2,2,6,1,30,0.2,0.8,0.8,0.2,1,0,2,1,1,2,1,1,1.045791864,0.2,0.8,0.8,0.2,0,-0.044774363,0.8,0.2,0,1,1,0,0,1,0
2,2,6,1,31,0.2,0.8,0.8,0.2,1,0,1,1,0,2,1,1,0.911560059,0.2,0.8,0.8,0.2,0,0.092597797,0.8,0.2,0,1,0,0,0,1,0
2,2,6,1,32,0.2,0.8,0.8,0.2,-1,0,2,1,1,1,1,-1,0.919173956,0.2,0.8,0.2,0.8,1,0.084279886,0.8,0.2,0,1,0,0,0,0,0
2,2,6,1,33,0.2,0.8,0.8,0.2,-1,0,2,1,1,2,1,-1,2.079966068,0.2,0.8,0.8,0.2,0,-0.73235158,0.8,0.2,0,1,1,1,1,0,1
2,2,6,1,34,0.2,0.8,0.8,0.2,-1,0,1,1,0,1,1,-1,1.422445059,0.2,0.8,0.2,0.8,1,-0.352377263,0.8,0.2,0,1,0,0,0,0,0
2,2,6,1,35,0.2,0.8,0.8,0.2,-1,0,2,1,1,2,1,-1,0.761847973,0.2,0.8,0.8,0.2,0,0.272008254,0.8,0.2,0,1,1,1,0,0,0
2,2,6,1,36,0.2,0.8,0.8,0.2,-1,0,1,1,0,1,1,-1,1.195037127,0.2,0.8,0.2,0.8,1,-0.178177253,0.8,0.2,0,1,0,0,0,0,0
2,2,6,1,37,0.2,0.8,0.8,0.2,-1,0,1,1,0,2,1,-1,1.547903061,0.2,0.8,0.8,0.2,0,-0.436901151,0.8,0.2,0,1,1,1,1,0,1
2,2,6,1,38,0.2,0.8,0.8,0.2,-1,0,1,1,1,1,2,0,1.122979879,0.2,0.8,0.2,0.8,1,-0.115985759,0.8,0.2,0,1,0,0,1,0,0
2,2,6,1,39,0.2,0.8,0.8,0.2,1,0,2,1,0,1,2,0,1.55634594,0.2,0.8,0.2,0.8,1,-0.442340727,0.8,0.2,0,1,0,1,0,1,0
2,2,6,1,40,0.2,0.8,0.8,0.2,-1,0,2,1,0,2,1,-1,0.924396038,0.2,0.8,0.8,0.2,0,0.078614687,0.8,0.2,0,1,0,1,1,0,1
2,2,6,1,41,0.2,0.8,0.8,0.2,-1,0,2,1,0,1,2,0,1.332681179,0.2,0.8,0.2,0.8,1,-0.287192837,0.8,0.2,0,1,0,0,1,0,1
2,2,6,1,42,0.2,0.8,0.8,0.2,-1,0,1,1,0,2,1,-1,1.315475941,0.2,0.8,0.8,0.2,0,-0.274198532,0.8,0.2,0,1,0,1,0,0,1
2,2,6,1,43,0.2,0.8,0.8,0.2,-1,0,2,1,0,1,2,0,1.378402948,0.2,0.8,0.2,0.8,1,-0.320925545,0.8,0.2,0,1,0,0,0,0,1
2,2,6,1,44,0.2,0.8,0.8,0.2,-1,0,1,1,0,1,2,0,1.94916296,0.2,0.8,0.2,0.8,1,-0.667400029,0.8,0.2,0,1,0,0,0,1,1
2,2,6,1,45,0.2,0.8,0.8,0.2,-1,0,2,1,1,1,2,0,1.47635603,0.2,0.8,0.2,0.8,1,-0.389576909,0.8,0.2,0,1,0,0,0,1,0
2,2,6,1,46,0.2,0.8,0.8,0.2,-1,0,1,1,0,1,2,0,1.021919012,0.2,0.8,0.2,0.8,1,-0.021682244,0.8,0.2,0,1,0,0,0,1,0
2,2,6,1,47,0.2,0.8,0.8,0.2,1,0,2,1,0,2,1,1,1.152987003,0.2,0.8,0.8,0.2,0,-0.142355969,0.8,0.2,0,1,0,0,0,0,1
2,2,6,1,48,0.2,0.8,0.8,0.2,1,0,1,1,0,1,2,0,0.847246885,0.2,0.8,0.2,0.8,1,0.165763145,0.8,0.2,0,1,0,1,0,0,1
2,2,6,1,49,0.2,0.8,0.8,0.2,-1,0,1,1,0,1,2,0,0.953613997,0.2,0.8,0.2,0.8,1,0.047496305,0.8,0.2,0,1,0,0,1,1,1
2,2,6,1,50,0.2,0.8,0.8,0.2,1,0,2,1,1,2,1,1,0.668525934,0.2,0.8,0.8,0.2,0,0.402680089,0.8,0.2,0,1,0,0,0,0,0
2,2,6,1,51,0.2,0.8,0.8,0.2,1,0,1,1,0,2,1,1,0.561594963,0.2,0.8,0.8,0.2,0,0.576974395,0.8,0.2,0,1,0,0,0,1,0
2,2,6,1,52,0.2,0.8,0.8,0.2,1,0,2,1,0,2,1,1,0.522573948,0.2,0.8,0.8,0.2,0,0.648988778,0.8,0.2,0,1,0,0,0,1,1
2,2,6,1,53,0.2,0.8,0.8,0.2,-1,0,2,1,0,1,2,0,0.90090394,0.2,0.8,0.2,0.8,1,0.104356642,0.8,0.2,0,1,0,0,1,0,1
2,2,6,1,54,0.8,0.2,0.8,0.2,1,0,1,1,1,2,2,0,0.848778963,0.8,0.2,0.2,0.8,0,0.163956476,0.2,0.8,0,1,0,0,0,0,0
2,2,6,1,55,0.8,0.2,0.8,0.2,1,0,1,1,1,2,1,1,0.617442846,0.8,0.2,0.2,0.8,0,0.482168771,0.2,0.8,0,1,1,0,1,1,1
2,2,6,1,56,0.8,0.2,0.8,0.2,1,0,2,1,1,2,2,0,0.769139051,0.8,0.2,0.2,0.8,0,0.262483505,0.2,0.8,0,1,0,0,0,1,1
2,2,6,1,57,0.8,0.2,0.8,0.2,-1,0,2,1,0,1,2,0,0.92987299,0.8,0.2,0.8,0.2,1,0.072707272,0.2,0.8,0,1,1,0,1,0,0
2,2,6,1,58,0.8,0.2,0.8,0.2,-1,0,1,1,0,1,1,-1,1.081347942,0.8,0.2,0.8,0.2,1,-0.078208358,0.2,0.8,0,1,0,0,0,1,1
2,2,6,1,59,0.8,0.2,0.8,0.2,1,0,1,1,0,1,1,1,1.096624136,0.8,0.2,0.8,0.2,1,-0.092236494,0.2,0.8,0,1,1,1,1,1,1
2,2,6,1,60,0.8,0.2,0.8,0.2,-1,0,2,1,0,2,1,-1,1.880167961,0.8,0.2,0.2,0.8,0,-0.631361114,0.2,0.8,0,1,1,1,0,0,1
2,2,7,2,1,0.2,0.8,0.2,0.8,1,0,4,1,0,2,1,1,1.217005968,0.2,0.8,0.8,0.2,0,-0.196393718,0.8,0.2,0,1,0,0,0,1,1
2,2,7,2,2,0.2,0.8,0.2,0.8,-1,0,4,1,0,1,2,0,1.075238943,0.2,0.8,0.2,0.8,1,-0.07254291,0.8,0.2,0,1,0,0,1,0,1
2,2,7,2,3,0.2,0.8,0.2,0.8,-1,0,3,2,1,2,1,-1,1.031007051,0.2,0.8,0.8,0.2,0,-0.030536044,0.8,0.2,0,1,0,1,0,0,0
2,2,7,2,4,0.2,0.8,0.2,0.8,1,0,3,2,0,2,1,1,0.976055145,0.2,0.8,0.8,0.2,0,0.024236193,0.8,0.2,0,1,0,0,1,1,0
2,2,7,2,5,0.2,0.8,0.2,0.8,-1,0,4,1,1,1,2,0,0.790119886,0.2,0.8,0.2,0.8,1,0.23557059,0.8,0.2,0,1,0,0,0,0,0
2,2,7,2,6,0.2,0.8,0.8,0.2,-1,0,3,2,1,1,1,-1,0.984785795,0.8,0.2,0.8,0.2,1,0.015331128,0.2,0.8,0,1,0,0,0,1,1
2,2,7,2,7,0.2,0.8,0.8,0.2,-1,0,4,1,1,1,1,-1,1.886894941,0.2,0.8,0.2,0.8,1,-0.63493259,0.8,0.2,0,1,1,0,0,1,1
2,2,7,2,8,0.2,0.8,0.8,0.2,-1,0,4,1,1,2,1,-1,1.049391031,0.2,0.8,0.8,0.2,0,-0.048210026,0.8,0.2,0,1,1,1,1,0,1
2,2,7,2,9,0.2,0.8,0.8,0.2,1,0,3,2,1,2,2,0,1.438462019,0.8,0.2,0.2,0.8,0,-0.3635745,0.2,0.8,0,1,0,0,0,1,1
2,2,7,2,10,0.2,0.8,0.8,0.2,1,0,3,2,1,1,1,1,0.964875221,0.8,0.2,0.8,0.2,1,0.03575649,0.2,0.8,0,1,1,1,1,0,1
2,2,7,2,11,0.2,0.8,0.8,0.2,-1,0,4,1,1,2,1,-1,1.552789927,0.2,0.8,0.8,0.2,0,-0.440053266,0.8,0.2,0,1,1,1,0,0,1
2,2,7,2,12,0.2,0.8,0.8,0.2,1,0,3,2,0,1,1,1,1.082333803,0.8,0.2,0.8,0.2,1,-0.079119639,0.2,0.8,0,1,0,1,0,0,0
2,2,7,2,13,0.2,0.8,0.8,0.2,-1,0,3,2,1,2,2,0,1.927577019,0.8,0.2,0.2,0.8,0,-0.656263783,0.2,0.8,0,1,1,1,1,0,0
2,2,7,2,14,0.2,0.8,0.8,0.2,-1,0,4,1,0,2,2,0,1.382880926,0.2,0.8,0.8,0.2,0,-0.324168951,0.8,0.2,0,1,1,1,0,1,0
2,2,7,2,15,0.2,0.8,0.8,0.2,-1,0,3,2,0,2,2,0,1.286194086,0.8,0.2,0.2,0.8,0,-0.251687537,0.2,0.8,0,1,1,1,0,1,1
2,2,7,2,16,0.2,0.8,0.8,0.2,1,0,4,1,0,1,1,1,1.450907946,0.2,0.8,0.2,0.8,1,-0.37218953,0.8,0.2,0,1,1,1,0,0,1
2,2,7,2,17,0.2,0.8,0.8,0.2,-1,0,4,1,1,2,1,-1,1.460321903,0.2,0.8,0.8,0.2,0,-0.378656893,0.8,0.2,0,1,1,1,1,0,0
2,2,7,2,18,0.2,0.8,0.8,0.2,-1,0,4,1,1,1,2,0,1.773855925,0.2,0.8,0.2,0.8,1,-0.573155666,0.8,0.2,0,1,0,0,1,0,1
2,2,7,2,19,0.2,0.8,0.8,0.2,1,0,4,1,1,2,1,1,0.937216997,0.2,0.8,0.8,0.2,0,0.064840436,0.8,0.2,0,1,0,0,1,0,1
2,2,7,2,20,0.2,0.8,0.8,0.2,1,0,4,1,0,2,1,1,0.758419991,0.2,0.8,0.8,0.2,0,0.27651797,0.8,0.2,0,1,0,0,1,1,0
2,2,7,2,21,0.2,0.8,0.8,0.2,1,0,4,1,0,2,2,0,0.537624121,0.2,0.8,0.8,0.2,0,0.620595623,0.8,0.2,0,1,0,0,1,1,1
2,2,7,2,22,0.2,0.8,0.8,0.2,1,0,4,1,1,1,2,0,0.935499907,0.2,0.8,0.2,0.8,1,0.066674233,0.8,0.2,0,1,1,1,1,0,0
2,2,7,2,23,0.2,0.8,0.8,0.2,-1,0,4,1,1,1,2,0,1.136229038,0.2,0.8,0.2,0.8,1,-0.127714918,0.8,0.2,0,1,0,0,1,1,1
2,2,7,2,24,0.2,0.8,0.8,0.2,1,0,4,1,0,1,2,0,1.024073124,0.2,0.8,0.2,0.8,1,-0.023787934,0.8,0.2,0,1,0,1,1,1,0
2,2,7,2,25,0.2,0.8,0.8,0.2,1,0,3,2,1,2,2,0,1.098036051,0.8,0.2,0.2,0.8,0,-0.093523176,0.2,0.8,0,1,0,0,0,0,0
2,2,7,2,26,0.2,0.8,0.8,0.2,1,0,3,2,0,1,1,1,0.874694824,0.8,0.2,0.8,0.2,1,0.133880226,0.2,0.8,0,1,1,1,1,0,0
2,2,7,2,27,0.2,0.8,0.8,0.2,1,0,3,2,1,1,1,1,0.838949919,0.8,0.2,0.8,0.2,1,0.175604266,0.2,0.8,0,1,1,1,1,1,0
2,2,7,2,28,0.2,0.8,0.8,0.2,-1,0,4,1,0,1,1,-1,1.204061031,0.2,0.8,0.2,0.8,1,-0.185700036,0.8,0.2,0,1,1,0,0,1,0
2,2,7,2,29,0.2,0.8,0.8,0.2,-1,0,3,2,1,2,2,0,1.945417881,0.8,0.2,0.2,0.8,0,-0.665476803,0.2,0.8,0,1,1,1,0,0,0
2,2,7,2,30,0.2,0.8,0.8,0.2,-1,0,4,1,1,2,2,0,1.63477397,0.2,0.8,0.8,0.2,0,-0.49150455,0.8,0.2,0,1,1,1,0,1,1
2,2,7,2,31,0.2,0.8,0.8,0.2,-1,0,3,2,1,1,1,-1,1.54369092,0.8,0.2,0.8,0.2,1,-0.43417625,0.2,0.8,0,1,1,0,0,0,1
2,2,7,2,32,0.2,0.8,0.8,0.2,-1,0,4,1,1,2,1,-1,1.225210905,0.2,0.8,0.8,0.2,0,-0.203112997,0.8,0.2,0,1,1,1,0,0,1
2,2,7,2,33,0.2,0.8,0.8,0.2,-1,0,3,2,0,1,1,-1,1.604312897,0.8,0.2,0.8,0.2,1,-0.472695563,0.2,0.8,0,1,0,0,0,0,0
2,2,7,2,34,0.2,0.8,0.8,0.2,1,0,3,2,1,1,1,1,1.438011885,0.8,0.2,0.8,0.2,1,-0.363261524,0.2,0.8,0,1,1,1,1,1,0
2,2,7,2,35,0.2,0.8,0.8,0.2,-1,0,3,2,1,2,2,0,0.83631587,0.8,0.2,0.2,0.8,0,0.178748902,0.2,0.8,0,1,1,1,1,0,1
2,2,7,2,36,0.2,0.8,0.8,0.2,1,0,4,1,0,1,2,0,0.714984894,0.2,0.8,0.2,0.8,1,0.335493864,0.8,0.2,0,1,1,1,0,0,0
2,2,7,2,37,0.2,0.8,0.8,0.2,-1,0,3,2,0,1,1,-1,1.053067923,0.8,0.2,0.8,0.2,1,-0.051707735,0.2,0.8,0,1,0,0,0,1,1
2,2,7,2,38,0.2,0.8,0.8,0.2,-1,0,3,2,1,1,2,0,0.750846863,0.8,0.2,0.8,0.2,1,0.286553559,0.2,0.8,0,1,1,0,1,1,0
2,2,7,2,39,0.2,0.8,0.8,0.2,-1,0,3,2,1,1,1,-1,0.810265064,0.8,0.2,0.8,0.2,1,0.210393845,0.2,0.8,0,1,0,0,1,1,1
2,2,7,2,40,0.2,0.8,0.8,0.2,1,0,3,2,0,1,1,1,1.184914827,0.8,0.2,0.8,0.2,1,-0.169670896,0.2,0.8,0,1,1,1,1,1,0
2,2,7,2,41,0.2,0.8,0.8,0.2,-1,0,4,1,1,2,1,-1,1.184620857,0.2,0.8,0.8,0.2,0,-0.169422772,0.8,0.2,0,1,1,1,0,0,0
2,2,7,2,42,0.2,0.8,0.8,0.2,-1,0,3,2,1,2,2,0,1.460913181,0.8,0.2,0.2,0.8,0,-0.379061707,0.2,0.8,0,1,0,1,0,1,1
2,2,7,2,43,0.2,0.8,0.8,0.2,-1,0,3,2,0,1,1,-1,1.128994942,0.8,0.2,0.8,0.2,1,-0.121327805,0.2,0.8,0,1,1,0,1,0,0
2,2,7,2,44,0.2,0.8,0.8,0.2,-1,0,3,2,0,1,2,0,1.308670044,0.8,0.2,0.8,0.2,1,-0.269011388,0.2,0.8,0,1,1,0,1,1,1
2,2,7,2,45,0.2,0.8,0.8,0.2,-1,0,4,1,1,2,2,0,1.802346945,0.2,0.8,0.8,0.2,0,-0.589089674,0.8,0.2,0,1,0,1,0,0,0
2,2,7,2,46,0.2,0.8,0.8,0.2,-1,0,4,1,0,2,2,0,1.564014912,0.2,0.8,0.8,0.2,0,-0.447256176,0.8,0.2,0,1,1,1,1,1,0
2,2,7,2,47,0.2,0.8,0.8,0.2,1,0,3,2,1,1,2,0,1.123357058,0.8,0.2,0.8,0.2,1,-0.116321575,0.2,0.8,0,1,1,1,0,0,0
2,2,7,2,48,0.2,0.8,0.8,0.2,-1,0,4,1,1,2,1,-1,1.34752512,0.2,0.8,0.8,0.2,0,-0.298269665,0.8,0.2,0,1,0,1,0,0,1
2,2,7,2,49,0.2,0.8,0.8,0.2,-1,0,3,2,0,1,1,-1,1.444895983,0.8,0.2,0.8,0.2,1,-0.368037335,0.2,0.8,0,1,0,0,0,0,0
2,2,7,2,50,0.2,0.8,0.8,0.2,-1,0,3,2,0,2,1,-1,1.566193104,0.8,0.2,0.2,0.8,0,-0.4486479,0.2,0.8,0,1,1,1,1,0,1
2,2,7,2,51,0.2,0.8,0.8,0.2,1,0,3,2,0,1,1,1,1.31366396,0.8,0.2,0.8,0.2,1,-0.272820149,0.2,0.8,0,1,0,1,1,0,1
2,2,7,2,52,0.2,0.8,0.8,0.2,-1,0,3,2,0,2,1,-1,1.341276169,0.8,0.2,0.2,0.8,0,-0.293621526,0.2,0.8,0,1,1,1,1,0,1
2,2,7,2,53,0.2,0.8,0.8,0.2,-1,0,4,1,0,1,2,0,0.893257141,0.2,0.8,0.2,0.8,1,0.112880788,0.8,0.2,0,1,0,0,0,0,1
2,2,7,2,54,0.2,0.8,0.8,0.2,-1,0,3,2,0,1,2,0,0.752221107,0.8,0.2,0.8,0.2,1,0.284724972,0.2,0.8,0,1,0,0,0,1,1
2,2,7,2,55,0.8,0.2,0.8,0.2,1,0,4,1,1,2,1,1,1.093775988,0.8,0.2,0.2,0.8,0,-0.089635919,0.2,0.8,0,1,0,0,0,0,0
2,2,7,2,56,0.8,0.2,0.8,0.2,1,0,4,1,1,2,2,0,0.849103212,0.8,0.2,0.2,0.8,0,0.163574531,0.2,0.8,0,1,0,0,1,1,1
2,2,7,2,57,0.8,0.2,0.8,0.2,1,0,3,2,1,1,1,1,1.318739891,0.8,0.2,0.8,0.2,1,-0.276676653,0.2,0.8,0,1,1,1,0,0,1
2,2,7,2,58,0.8,0.2,0.8,0.2,1,0,4,1,0,2,2,0,0.949542999,0.8,0.2,0.2,0.8,0,0.051774464,0.2,0.8,0,1,1,0,0,0,0
2,2,7,2,59,0.8,0.2,0.8,0.2,1,0,4,1,1,2,1,1,0.620619059,0.8,0.2,0.2,0.8,0,0.477037817,0.2,0.8,0,1,1,0,1,1,0
2,2,7,2,60,0.8,0.2,0.8,0.2,-1,0,4,1,0,1,2,0,0.727778912,0.8,0.2,0.8,0.2,1,0.31775797,0.2,0.8,0,1,0,0,1,0,0
2,2,8,1,1,0.8,0.2,0.8,0.2,1,0,1,1,1,1,2,0,0.856087923,0.8,0.2,0.8,0.2,1,0.155382194,0.2,0.8,0,1,0,1,0,1,0
2,2,8,1,2,0.8,0.2,0.8,0.2,-1,0,1,1,1,1,1,-1,1.220513105,0.8,0.2,0.8,0.2,1,-0.199271349,0.2,0.8,0,1,0,0,1,1,1
2,2,8,1,3,0.8,0.2,0.8,0.2,1,0,1,1,1,1,1,1,1.59853816,0.8,0.2,0.8,0.2,1,-0.469089562,0.2,0.8,0,1,1,1,1,1,1
2,2,8,1,4,0.8,0.2,0.8,0.2,-1,0,1,1,0,2,2,0,1.223814011,0.8,0.2,0.2,0.8,0,-0.20197222,0.2,0.8,0,1,1,1,1,0,0
2,2,8,1,5,0.8,0.2,0.8,0.2,-1,0,2,1,1,1,2,0,1.013896942,0.8,0.2,0.8,0.2,1,-0.013801265,0.2,0.8,0,1,1,0,0,0,0
2,2,8,1,6,0.8,0.2,0.8,0.2,1,0,1,1,1,1,1,1,0.870179176,0.8,0.2,0.8,0.2,1,0.139056139,0.2,0.8,0,1,0,1,0,1,1
2,2,8,1,7,0.2,0.8,0.8,0.2,1,0,2,1,0,1,2,0,1.111701965,0.2,0.8,0.2,0.8,1,-0.105892143,0.8,0.2,0,1,1,1,0,1,0
2,2,8,1,8,0.2,0.8,0.8,0.2,-1,0,2,1,0,2,2,0,1.271686077,0.2,0.8,0.8,0.2,0,-0.24034364,0.8,0.2,0,1,0,1,1,0,1
2,2,8,1,9,0.2,0.8,0.8,0.2,-1,0,2,1,1,2,2,0,1.58072114,0.2,0.8,0.8,0.2,0,-0.457881161,0.8,0.2,0,1,1,1,1,1,0
2,2,8,1,10,0.2,0.8,0.8,0.2,-1,0,2,1,1,2,1,-1,1.108533859,0.2,0.8,0.8,0.2,0,-0.103038295,0.8,0.2,0,1,1,1,1,1,1
2,2,8,1,11,0.2,0.8,0.8,0.2,-1,0,1,1,0,1,2,0,1.303472996,0.2,0.8,0.2,0.8,1,-0.265032237,0.8,0.2,0,1,0,0,0,0,0
2,2,8,1,12,0.2,0.8,0.8,0.2,1,0,2,1,1,1,2,0,0.793246031,0.2,0.8,0.2,0.8,1,0.231621852,0.8,0.2,0,1,0,1,0,1,0
2,2,8,1,13,0.2,0.8,0.8,0.2,-1,0,2,1,1,1,2,0,1.617953062,0.2,0.8,0.2,0.8,1,-0.481161808,0.8,0.2,0,1,0,0,1,1,1
